iStimSide,iTargSide,iSideFirst,iStim,iGen,sylTarg,sylDist,sylCent,block.thisRepN,block.thisTrialN,block.thisN,block.thisIndex,trials.thisRepN,trials.thisTrialN,trials.thisN,trials.thisIndex,expStartText.started,expStartText.stopped,expStartKey.keys,expStartKey.rt,expStartKey.started,expStartKey.stopped,blockStartText.started,blockStartText.stopped,blockStartKey.keys,blockStartKey.rt,blockStartKey.started,blockStartKey.stopped,visCueText.started,visCueText.stopped,fixDot.started,fixDot.stopped,fixDotBlue.started,fixDotBlue.stopped,soundStim.started,soundStim.stopped,trialKey.keys,trialKey.rt,trialKey.started,trialKey.stopped,participant,session,date,expName,psychopyVersion,frameRate,
,,,,,,,,,,,,,,,,6.664447099959943,None,space,0.40156570001272485,7.588894299988169,None,,,,,,,,,,,,,,,,,,,1,001,2022_Jan_09_1900,expDesign,2021.2.3,60.43044605955198,
0,1,1,1,1,323,231,1133,0,0,0,0,0,0,0,0,,,,,,,17.980936500011012,None,space,1.8604863000218756,17.980936500011012,None,20.863439799984917,21.867186399991624,21.867186399991624,26.66730029997416,26.653573299990967,None,22.864043329964623,25.682367399975192,"['num_3', 'num_2', 'num_3']","[0.42982659995323047, 0.6229686999577098, 0.8098459999891929]",26.653573299990967,None,1,001,2022_Jan_09_1900,expDesign,2021.2.3,60.43044605955198,
0,0,1,1,0,123,231,3233,0,0,0,0,0,1,1,1,,,,,,,,,,,,,37.64031349995639,38.63971059996402,38.63971059996402,43.4404411999858,43.4404411999858,36.675847799982876,39.638420129957375,None,"['num_1', 'num_2', 'num_3']","[0.8349296000087634, 1.0229526000330225, 1.221937700000126]",43.4404411999858,36.675847799982876,1,001,2022_Jan_09_1900,expDesign,2021.2.3,60.43044605955198,
0,0,0,1,0,233,312,1131,0,0,0,0,0,2,2,2,,,,,,,,,,,,,54.430381799989846,55.429355999978725,55.429355999978725,60.232217699987814,60.232217699987814,53.44748659996549,56.42942383001209,None,"['num_2', 'num_3', 'num_3']","[0.8211335999658331, 1.0151542999665253, 1.1791108999750577]",60.232217699987814,53.44748659996549,1,001,2022_Jan_09_1900,expDesign,2021.2.3,60.43044605955198,
1,1,1,0,0,313,122,3111,0,0,0,0,0,3,3,3,,,,,,,,,,,,,71.22011429996928,72.22100590000628,72.22100590000628,77.02448449999793,77.02448449999793,70.23936579999281,73.22184083000175,None,None,,77.02448449999793,70.23936579999281,1,001,2022_Jan_09_1900,expDesign,2021.2.3,60.43044605955198,
1,0,1,0,1,321,112,2113,0,0,0,0,0,4,4,4,,,,,,,,,,,,,88.01224359998014,89.02937080000993,89.01275369996438,93.81328329996904,93.81328329996904,87.03035079996334,90.01270602999139,None,None,,93.81328329996904,87.03035079996334,1,001,2022_Jan_09_1900,expDesign,2021.2.3,60.43044605955198,
0,0,1,1,1,322,231,3212,0,0,0,0,0,5,5,5,,,,,,,,,,,,,104.80297199997585,105.802517300006,105.802517300006,110.6056790999719,110.6056790999719,103.8211054999847,106.8036859299813,109.62034219998168,None,,110.6056790999719,103.8211054999847,1,001,2022_Jan_09_1900,expDesign,2021.2.3,60.43044605955198,
1,1,0,0,0,313,132,1122,0,0,0,0,0,6,6,6,,,,,,,,,,,,,121.59399959997972,122.59744569996838,122.59744569996838,127.39822400000412,127.39822400000412,120.61227559996769,123.59301913000527,126.41119359998265,None,,127.39822400000412,120.61227559996769,1,001,2022_Jan_09_1900,expDesign,2021.2.3,60.43044605955198,
1,0,0,0,0,223,311,3313,0,0,0,0,0,7,7,7,,,,,,,,,,,,,138.38494989997707,139.40230869996594,139.38543019996723,144.18767740001203,144.18767740001203,137.40208430000348,140.38409632997937,143.1999297000002,None,,144.18767740001203,137.40208430000348,1,001,2022_Jan_09_1900,expDesign,2021.2.3,60.43044605955198,
0,0,1,1,1,312,121,3233,0,0,0,0,0,8,8,8,,,,,,,,,,,,,155.1742513999925,156.1756021999754,156.1756021999754,160.97848849999718,160.97848849999718,154.19239519996336,157.17491822998855,159.99081449996447,None,,160.97848849999718,154.19239519996336,1,001,2022_Jan_09_1900,expDesign,2021.2.3,60.43044605955198,
1,1,1,1,0,312,133,3311,0,0,0,0,0,9,9,9,,,,,,,,,,,,,171.96679340000264,172.96756999997888,172.96756999997888,177.76927749998868,177.76927749998868,170.98473819997162,173.96758662997163,176.78283639997244,None,,177.76927749998868,170.98473819997162,1,001,2022_Jan_09_1900,expDesign,2021.2.3,60.43044605955198,
1,1,0,1,0,321,213,2232,0,0,0,0,0,10,10,10,,,,,,,,,,,,,188.75770189997274,189.7747614000109,189.75799199996982,194.558702899958,194.558702899958,187.77565909997793,190.7582072299614,None,None,,194.558702899958,187.77565909997793,1,001,2022_Jan_09_1900,expDesign,2021.2.3,60.43044605955198,
1,0,0,1,0,223,131,1212,0,0,0,0,0,11,11,11,,,,,,,,,,,,,205.54702110000653,206.54910579998977,206.54910579998977,211.3501425999566,211.3501425999566,204.56657540000742,207.5492588299734,None,None,,211.3501425999566,204.56657540000742,1,001,2022_Jan_09_1900,expDesign,2021.2.3,60.43044605955198,
1,0,0,0,0,313,221,3322,0,0,0,0,0,12,12,12,,,,,,,,,,,,,222.33958789997268,223.34037689998513,223.34037689998513,228.14161299995612,228.14161299995612,221.35665159998462,224.34011682996643,None,None,,228.14161299995612,221.35665159998462,1,001,2022_Jan_09_1900,expDesign,2021.2.3,60.43044605955198,
0,1,1,1,0,212,121,3212,0,0,0,0,0,13,13,13,,,,,,,,,,,,,239.12880669999868,240.1292659000028,240.1292659000028,244.93308210000396,244.93308210000396,238.15230560000055,241.13095362997265,None,None,,244.93308210000396,238.15230560000055,1,001,2022_Jan_09_1900,expDesign,2021.2.3,60.43044605955198,
0,1,1,0,0,323,131,2111,0,0,0,0,0,14,14,14,,,,,,,,,,,,,255.92131169995992,256.9218589999946,256.9218589999946,261.72400429996196,261.72400429996196,254.93980079999892,257.9216886299604,None,None,,261.72400429996196,254.93980079999892,1,001,2022_Jan_09_1900,expDesign,2021.2.3,60.43044605955198,
0,0,0,1,1,313,132,2312,0,0,0,0,0,15,15,15,,,,,,,,,,,,,272.7108988999971,273.71287339995615,273.71287339995615,278.5148013999569,278.5148013999569,271.7304640999646,274.7129996299685,None,None,,278.5148013999569,271.7304640999646,1,001,2022_Jan_09_1900,expDesign,2021.2.3,60.43044605955198,
0,0,0,0,0,131,313,2312,0,0,0,0,0,16,16,16,,,,,,,,,,,,,289.5030084999744,290.5036202999763,290.5036202999763,295.3042437999975,295.3042437999975,288.52124829997774,291.50217302999806,None,None,,295.3042437999975,288.52124829997774,1,001,2022_Jan_09_1900,expDesign,2021.2.3,60.43044605955198,
0,1,1,1,0,323,212,3321,0,0,0,0,0,17,17,17,,,,,,,,,,,,,306.29397249995964,307.31121109996457,307.2960609999718,312.09564869996393,312.09564869996393,305.3113136999891,308.2930622299958,311.1090654999716,None,,312.09564869996393,305.3113136999891,1,001,2022_Jan_09_1900,expDesign,2021.2.3,60.43044605955198,
0,0,0,0,1,312,131,1211,0,0,0,0,0,18,18,18,,,,,,,,,,,,,323.0846274999785,324.08359870000277,324.08359870000277,328.8859068999882,328.8859068999882,322.1025776999886,325.0852553299686,327.9023911000113,None,,328.8859068999882,322.1025776999886,1,001,2022_Jan_09_1900,expDesign,2021.2.3,60.43044605955198,
1,1,0,1,1,121,232,2112,0,0,0,0,0,19,19,19,,,,,,,,,,,,,339.8761111999629,340.87636210001074,340.87636210001074,345.678181700001,345.678181700001,338.89326390001224,341.87611282995783,344.69347229995765,None,,345.678181700001,338.89326390001224,1,001,2022_Jan_09_1900,expDesign,2021.2.3,60.43044605955198,
0,1,0,1,0,331,122,3211,0,0,0,0,0,20,20,20,,,,,,,,,,,,,356.6677795999567,357.68346550001297,357.66628199996194,362.46892789995763,362.46892789995763,355.68460269999923,358.6669749299821,361.48658179998165,None,,362.46892789995763,355.68460269999923,1,001,2022_Jan_09_1900,expDesign,2021.2.3,60.43044605955198,
1,0,0,1,1,233,121,1213,0,0,0,0,0,21,21,21,,,,,,,,,,,,,373.45732369995676,374.45765940001,374.45765940001,379.2599995000055,379.2599995000055,372.4757427999866,375.45804472995803,None,None,,379.2599995000055,372.4757427999866,1,001,2022_Jan_09_1900,expDesign,2021.2.3,60.43044605955198,
1,0,1,0,0,121,212,1121,0,0,0,0,0,22,22,22,,,,,,,,,,,,,390.26671960001113,391.2833382000099,391.24829769995995,396.04951799998526,396.04951799998526,389.26264440000523,392.31408002996466,395.13119899999583,None,,396.04951799998526,389.26264440000523,1,001,2022_Jan_09_1900,expDesign,2021.2.3,60.43044605955198,
0,1,1,0,1,221,312,3331,0,0,0,0,0,23,23,23,,,,,,,,,,,,,407.059409199981,408.07057549996534,408.0547389999847,412.86035649996484,412.8436224999605,406.07405120000476,409.0393333300075,None,None,,412.8436224999605,406.07405120000476,1,001,2022_Jan_09_1900,expDesign,2021.2.3,60.43044605955198,
0,0,0,0,1,231,312,3223,0,0,0,0,0,24,24,24,,,,,,,,,,,,,423.84369579999475,424.8440911999787,424.8440911999787,429.64975039998535,429.64975039998535,422.8596370999585,425.8439113299886,428.66183810000075,None,,429.64975039998535,422.8596370999585,1,001,2022_Jan_09_1900,expDesign,2021.2.3,60.43044605955198,
0,0,0,0,1,233,312,1232,0,0,0,0,0,25,25,25,,,,,,,,,,,,,440.6375346999848,441.63657679996686,441.63657679996686,446.4405006999732,446.4405006999732,439.6553244999959,442.63827393000827,None,None,,446.4405006999732,439.6553244999959,1,001,2022_Jan_09_1900,expDesign,2021.2.3,60.43044605955198,
1,1,1,0,1,231,322,3322,0,0,0,0,0,26,26,26,,,,,,,,,,,,,457.4287506999681,458.43088219995843,458.43088219995843,463.2313853999949,463.2313853999949,456.4475038999808,459.43252292997784,None,None,,463.2313853999949,456.4475038999808,1,001,2022_Jan_09_1900,expDesign,2021.2.3,60.43044605955198,
1,1,0,0,1,132,311,1212,0,0,0,0,0,27,27,27,,,,,,,,,,,,,474.2197664999985,475.2203085999936,475.2203085999936,480.0262972000055,480.0262972000055,473.2404713999713,476.22039212997186,None,None,,480.0262972000055,473.2404713999713,1,001,2022_Jan_09_1900,expDesign,2021.2.3,60.43044605955198,
1,1,0,0,1,312,123,3131,0,0,0,0,0,28,28,28,,,,,,,,,,,,,491.0106710999971,492.0126595000038,492.0126595000038,496.8132688999758,496.8132688999758,490.0269307999988,493.01146163000374,None,None,,496.8132688999758,490.0269307999988,1,001,2022_Jan_09_1900,expDesign,2021.2.3,60.43044605955198,
1,1,1,0,1,311,223,1132,0,0,0,0,0,29,29,29,,,,,,,,,,,,,507.8015134999878,508.80204649997177,508.80204649997177,513.6042373999953,513.6042373999953,506.81964489998063,509.8037665300129,512.6188916999963,None,,513.6042373999953,506.81964489998063,1,001,2022_Jan_09_1900,expDesign,2021.2.3,60.43044605955198,
0,0,1,1,1,122,231,3232,0,0,0,0,0,30,30,30,,,,,,,,,,,,,524.5925042000017,525.5930329000112,525.5930329000112,530.3967309999862,530.3967309999862,523.6097500000033,526.5915006299678,None,None,,530.3967309999862,523.6097500000033,1,001,2022_Jan_09_1900,expDesign,2021.2.3,60.43044605955198,
