iStimSide,iTargSide,iSideFirst,iStim,iGen,sylTarg,sylDist,sylCent,block.thisRepN,block.thisTrialN,block.thisN,block.thisIndex,trials.thisRepN,trials.thisTrialN,trials.thisN,trials.thisIndex,expStartText.started,expStartText.stopped,expStartKey.keys,expStartKey.rt,expStartKey.started,expStartKey.stopped,blockStartText.started,blockStartText.stopped,blockStartKey.keys,blockStartKey.rt,blockStartKey.started,blockStartKey.stopped,visCueText.started,visCueText.stopped,fixDot.started,fixDot.stopped,fixDotBlue.started,fixDotBlue.stopped,soundStim.started,soundStim.stopped,trialKey.keys,trialKey.rt,trialKey.started,trialKey.stopped,blockEndText.started,blockEndText.stopped,blockEndKey.keys,blockEndKey.rt,blockEndKey.started,blockEndKey.stopped,expEndText.started,expEndText.stopped,expEndKey.keys,expEndKey.rt,expEndKey.started,expEndKey.stopped,participant,session,date,expName,psychopyVersion,frameRate,
,,,,,,,,,,,,,,,,48.734146900009364,None,space,7.1132074999623,49.65949739998905,None,,,,,,,,,,,,,,,,,,,,,,,,,,,,,,,1,001,2022_Jan_09_2033,expDesign,2021.2.3,60.07748795349682,
0,1,0,0,1,321,233,3113,2,0,2,0,0,0,0,0,,,,,,,66.77067019999959,None,space,1.538028499984648,66.77067019999959,None,69.33725989999948,70.3396316000144,70.32344629999716,75.12519519997295,75.12519519997295,None,71.3397579899989,74.15466569998534,"['num_3', 'num_2', 'num_1']","[0.5185656999819912, 0.7735078000114299, 1.0125912000075914]",75.12519519997295,None,,,,,,,,,,,,,1,001,2022_Jan_09_2033,expDesign,2021.2.3,60.07748795349682,
1,1,0,0,1,121,313,2111,2,0,2,0,0,1,1,1,,,,,,,,,,,,,86.1290637999773,87.14445610000985,87.12714669998968,91.93342369998572,91.93342369998572,None,88.1305456899805,None,None,,91.93342369998572,None,,,,,,,,,,,,,1,001,2022_Jan_09_2033,expDesign,2021.2.3,60.07748795349682,
1,0,1,0,0,323,231,1211,2,0,2,0,0,2,2,2,,,,,,,,,,,,,102.92082300002221,103.92131429997971,103.92131429997971,108.72483229998033,108.72483229998033,101.94141420000233,104.92012579002184,None,None,,108.72483229998033,101.94141420000233,,,,,,,,,,,,,1,001,2022_Jan_09_2033,expDesign,2021.2.3,60.07748795349682,
1,1,0,1,0,323,231,1123,2,0,2,0,0,3,3,3,,,,,,,,,,,,,119.71162640000694,120.71213469997747,120.71213469997747,125.51433879998513,125.51433879998513,118.72925400000531,121.71269348999485,None,None,,125.51433879998513,118.72925400000531,,,,,,,,,,,,,1,001,2022_Jan_09_2033,expDesign,2021.2.3,60.07748795349682,
1,1,0,0,0,323,232,3112,2,0,2,0,0,4,4,4,,,,,,,,,,,,,136.502668000001,137.50310019997414,137.50310019997414,142.30357049999293,142.30357049999293,135.5201752000139,138.50350478998152,None,None,,142.30357049999293,135.5201752000139,,,,,,,,,,,,,1,001,2022_Jan_09_2033,expDesign,2021.2.3,60.07748795349682,
1,0,0,1,1,313,231,1312,2,0,2,0,0,5,5,5,,,,,,,,,,,,,153.29352669999935,154.29232249996858,154.29232249996858,159.09590149996802,159.09590149996802,152.30957709997892,155.29461448997026,158.1110181999975,None,,159.09590149996802,152.30957709997892,,,,,,,,,,,,,1,001,2022_Jan_09_2033,expDesign,2021.2.3,60.07748795349682,
0,1,1,1,0,232,313,3231,2,0,2,0,0,6,6,6,,,,,,,,,,,,,170.0859110999736,171.10151680000126,171.0879901999724,175.88696540001547,175.88696540001547,169.100483599992,172.0872260899865,174.8996275999816,None,,175.88696540001547,169.100483599992,,,,,,,,,,,,,1,001,2022_Jan_09_2033,expDesign,2021.2.3,60.07748795349682,
0,0,1,0,1,323,132,2321,2,0,2,0,0,7,7,7,,,,,,,,,,,,,186.87538380001206,187.87717420002446,187.87717420002446,192.6789165000082,192.6789165000082,185.89442430000054,188.87632889000233,191.69254339998588,None,,192.6789165000082,185.89442430000054,,,,,,,,,,,,,1,001,2022_Jan_09_2033,expDesign,2021.2.3,60.07748795349682,
1,1,0,1,0,313,221,2122,2,0,2,0,0,8,8,8,,,,,,,,,,,,,203.66254539997317,204.66242750000674,204.66242750000674,209.46704830002273,209.46704830002273,202.67846879997524,205.66436448998283,None,None,,209.46704830002273,202.67846879997524,,,,,,,,,,,,,1,001,2022_Jan_09_2033,expDesign,2021.2.3,60.07748795349682,
0,0,1,1,0,123,332,1211,2,0,2,0,0,9,9,9,,,,,,,,,,,,,220.4549775000196,221.45551339996746,221.45551339996746,226.2592532999697,226.2592532999697,219.47215799998958,222.45794438997982,225.27230989997042,None,,226.2592532999697,219.47215799998958,,,,,,,,,,,,,1,001,2022_Jan_09_2033,expDesign,2021.2.3,60.07748795349682,
1,0,0,0,1,132,313,1323,2,0,2,0,0,10,10,10,,,,,,,,,,,,,237.24780740001006,238.24761050002417,238.24761050002417,243.04970500001218,243.04970500001218,236.26501839997945,239.2486707900185,242.0632035000017,None,,243.04970500001218,236.26501839997945,,,,,,,,,,,,,1,001,2022_Jan_09_2033,expDesign,2021.2.3,60.07748795349682,
1,0,0,1,0,121,212,3132,2,0,2,0,0,11,11,11,,,,,,,,,,,,,254.03737370000454,255.0382658999879,255.0382658999879,259.84103040001355,259.84103040001355,253.05506049998803,256.0382427899982,258.8556675,None,,259.84103040001355,253.05506049998803,,,,,,,,,,,,,1,001,2022_Jan_09_2033,expDesign,2021.2.3,60.07748795349682,
0,0,1,1,0,323,132,3132,2,0,2,0,0,12,12,12,,,,,,,,,,,,,270.8313725999906,271.8452146999771,271.8299332999741,276.6306746000191,276.6306746000191,269.8466137999785,272.83293088999346,None,None,,276.6306746000191,269.8466137999785,,,,,,,,,,,,,1,001,2022_Jan_09_2033,expDesign,2021.2.3,60.07748795349682,
1,0,1,1,0,111,333,2333,2,0,2,0,0,13,13,13,,,,,,,,,,,,,287.620209500019,288.62077689997386,288.62077689997386,293.4217567999731,293.4217567999731,286.6377814000007,289.6199619900086,None,None,,293.4217567999731,286.6377814000007,,,,,,,,,,,,,1,001,2022_Jan_09_2033,expDesign,2021.2.3,60.07748795349682,
0,1,1,0,1,212,323,3332,2,0,2,0,0,14,14,14,,,,,,,,,,,,,304.4267666999949,305.4284267000039,305.4284267000039,310.2305595999933,310.2305595999933,303.4436856000102,306.42775898999537,309.2454016999691,None,,310.2305595999933,303.4436856000102,,,,,,,,,,,,,1,001,2022_Jan_09_2033,expDesign,2021.2.3,60.07748795349682,
0,1,1,0,0,331,122,3112,2,0,2,0,0,15,15,15,,,,,,,,,,,,,321.21770149999065,322.22155090002343,322.22155090002343,327.0202189999982,327.0202189999982,320.2341728999745,323.21931519000793,326.03649809997296,None,,327.0202189999982,320.2341728999745,,,,,,,,,,,,,1,001,2022_Jan_09_2033,expDesign,2021.2.3,60.07748795349682,
1,0,1,0,1,211,323,1222,2,0,2,0,0,16,16,16,,,,,,,,,,,,,338.0086014000117,339.0102022999781,339.0102022999781,343.81236530002207,343.81236530002207,337.0263062000158,340.01057658998764,342.81186860002344,None,,343.81236530002207,337.0263062000158,,,,,,,,,,,,,1,001,2022_Jan_09_2033,expDesign,2021.2.3,60.07748795349682,
0,1,1,0,0,112,233,1332,2,0,2,0,0,17,17,17,,,,,,,,,,,,,354.8007688000216,355.8011183000053,355.8011183000053,360.60220379999373,360.60220379999373,353.8174849000061,356.80175028999804,None,None,,360.60220379999373,353.8174849000061,,,,,,,,,,,,,1,001,2022_Jan_09_2033,expDesign,2021.2.3,60.07748795349682,
0,0,1,1,1,131,312,3313,2,0,2,0,0,18,18,18,,,,,,,,,,,,,371.5914470999851,372.5908161000116,372.5908161000116,377.39453350001713,377.39453350001713,370.61105190002127,373.5925155899837,None,None,,377.39453350001713,370.61105190002127,,,,,,,,,,,,,1,001,2022_Jan_09_2033,expDesign,2021.2.3,60.07748795349682,
0,0,0,1,1,232,323,1211,2,0,2,0,0,19,19,19,,,,,,,,,,,,,388.38384129997576,389.3995962999761,389.38292160001583,394.18511909997324,394.18511909997324,387.400047299976,390.3821399900131,None,None,,394.18511909997324,387.400047299976,,,,,,,,,,,,,1,001,2022_Jan_09_2033,expDesign,2021.2.3,60.07748795349682,
1,1,0,0,0,222,131,3221,2,0,2,0,0,20,20,20,,,,,,,,,,,,,405.17225210001925,406.1725963000208,406.1725963000208,410.97585970000364,410.97585970000364,404.1898268000223,407.1742142900126,None,None,,410.97585970000364,404.1898268000223,,,,,,,,,,,,,1,001,2022_Jan_09_2033,expDesign,2021.2.3,60.07748795349682,
1,0,1,0,0,131,212,2231,2,0,2,0,0,21,21,21,,,,,,,,,,,,,421.9683729999815,422.9793046999839,422.9619073999929,427.76699869998265,427.76699869998265,420.9790858000051,423.96322969000323,None,None,,427.76699869998265,420.9790858000051,,,,,,,,,,,,,1,001,2022_Jan_09_2033,expDesign,2021.2.3,60.07748795349682,
1,1,0,0,1,313,231,3112,2,0,2,0,0,22,22,22,,,,,,,,,,,,,438.7539935000241,439.75444140000036,439.75444140000036,444.5579955999856,444.5579955999856,437.7727196000051,440.7549240900204,None,None,,444.5579955999856,437.7727196000051,,,,,,,,,,,,,1,001,2022_Jan_09_2033,expDesign,2021.2.3,60.07748795349682,
1,1,0,1,1,231,313,2233,2,0,2,0,0,23,23,23,,,,,,,,,,,,,455.545964799996,456.56147429998964,456.54368679999607,461.34881110000424,461.34881110000424,454.5650228000013,457.5452216899954,460.3659267000039,None,,461.34881110000424,454.5650228000013,,,,,,,,,,,,,1,001,2022_Jan_09_2033,expDesign,2021.2.3,60.07748795349682,
0,1,1,0,0,112,231,2332,2,0,2,0,0,24,24,24,,,,,,,,,,,,,472.33720999996876,473.3377957000048,473.3377957000048,478.13844050001353,478.13844050001353,471.354576200014,474.3381324900198,477.1545901999925,None,,478.13844050001353,471.354576200014,,,,,,,,,,,,,1,001,2022_Jan_09_2033,expDesign,2021.2.3,60.07748795349682,
0,1,0,1,1,232,321,2313,2,0,2,0,0,25,25,25,,,,,,,,,,,,,489.1281833999674,490.1271010999917,490.1271010999917,494.93259550002404,494.93259550002404,488.14800240000477,491.1276335899835,493.945487399993,None,,494.93259550002404,488.14800240000477,,,,,,,,,,,,,1,001,2022_Jan_09_2033,expDesign,2021.2.3,60.07748795349682,
0,1,0,1,1,312,223,1131,2,0,2,0,0,26,26,26,,,,,,,,,,,,,505.91758080001455,506.9209795999923,506.9209795999923,511.7230717000202,511.7230717000202,504.9389779000194,507.9216955899843,None,None,,511.7230717000202,504.9389779000194,,,,,,,,,,,,,1,001,2022_Jan_09_2033,expDesign,2021.2.3,60.07748795349682,
0,0,0,0,1,313,131,3121,2,0,2,0,0,27,27,27,,,,,,,,,,,,,522.7099470999674,523.7270895999973,523.710466999968,528.5125042999862,528.5125042999862,521.7302441999782,524.7129533899948,None,None,,528.5125042999862,521.7302441999782,,,,,,,,,,,,,1,001,2022_Jan_09_2033,expDesign,2021.2.3,60.07748795349682,
0,0,1,1,1,123,332,2122,2,0,2,0,0,28,28,28,,,,,,,,,,,,,539.5011881000246,540.5027891999925,540.5027891999925,545.3035355000175,545.3035355000175,538.5209365999908,541.5038453900139,None,None,,545.3035355000175,538.5209365999908,,,,,,,,,,,,,1,001,2022_Jan_09_2033,expDesign,2021.2.3,60.07748795349682,
1,0,0,1,0,121,312,3213,2,0,2,0,0,29,29,29,,,,,,,,,,,,,556.2933841000195,557.3090179999708,557.2940463999985,562.0945752999978,562.0945752999978,555.3094431000063,558.2912457899889,None,"['num_1', 'num_2', 'num_1']","[2.8042705999687314, 2.9602657000068575, 3.1112442999728955]",562.0945752999978,555.3094431000063,,,,,,,,,,,,,1,001,2022_Jan_09_2033,expDesign,2021.2.3,60.07748795349682,
1,0,1,0,0,212,121,3322,2,0,2,0,0,30,30,30,,,,,,,,,,,,,573.080867599987,574.0815181999933,574.0815181999933,578.8855106999981,578.8855106999981,572.0998012999771,575.0835320899729,None,"['num_2', 'num_1', 'num_2']","[0.40530779998516664, 0.5803236999781802, 0.7362907999777235]",578.8855106999981,572.0998012999771,,,,,,,,,,,,,1,001,2022_Jan_09_2033,expDesign,2021.2.3,60.07748795349682,
0,1,1,1,1,231,322,3222,2,0,2,0,0,31,31,31,,,,,,,,,,,,,589.873952599999,590.8729861999745,590.8729861999745,595.6747723000008,595.6747723000008,588.8914551999769,591.8730415900005,None,None,,595.6747723000008,588.8914551999769,,,,,,,,,,,,,1,001,2022_Jan_09_2033,expDesign,2021.2.3,60.07748795349682,
0,0,0,1,0,123,231,3322,3,0,3,0,0,0,0,0,,,,,,,620.0170705000055,None,space,3.428650700021535,620.0170705000055,None,624.4719771000091,625.4764446999761,625.4555625999928,630.2586292999913,630.2586292999913,None,626.4712466899888,None,None,,630.2586292999913,None,605.6805764000164,None,space,4.307143100013491,605.6805764000164,None,,,,,,,1,001,2022_Jan_09_2033,expDesign,2021.2.3,60.07748795349682,
0,1,1,1,0,113,322,2333,3,0,3,0,0,1,1,1,,,,,,,,,,,,,641.2451838999987,642.2474859000067,642.2474859000067,647.0495257999864,647.0495257999864,640.2663711999776,643.247979189991,646.0640817999956,None,,647.0495257999864,640.2663711999776,,,,,,,,,,,,,1,001,2022_Jan_09_2033,expDesign,2021.2.3,60.07748795349682,
0,1,0,0,0,113,321,2211,3,0,3,0,0,2,2,2,,,,,,,,,,,,,658.0379295999883,659.0384228000185,659.0384228000185,663.8405375999864,663.8405375999864,657.0554821999976,660.0371148899663,662.8551357000251,None,,663.8405375999864,657.0554821999976,,,,,,,,,,,,,1,001,2022_Jan_09_2033,expDesign,2021.2.3,60.07748795349682,
0,1,0,0,0,323,212,2221,3,0,3,0,0,3,3,3,,,,,,,,,,,,,674.8270764999907,675.827543499996,675.827543499996,680.6319925999851,680.6319925999851,673.849714800017,676.829598689999,679.646623699984,None,,680.6319925999851,673.849714800017,,,,,,,,,,,,,1,001,2022_Jan_09_2033,expDesign,2021.2.3,60.07748795349682,
0,0,1,0,0,212,321,2211,3,0,3,0,0,4,4,4,,,,,,,,,,,,,691.6196466999827,692.6201514999848,692.6201514999848,697.4206231000135,697.4206231000135,690.6374063999974,693.6189453900093,None,None,,697.4206231000135,690.6374063999974,,,,,,,,,,,,,1,001,2022_Jan_09_2033,expDesign,2021.2.3,60.07748795349682,
1,1,0,1,1,321,213,3111,3,0,3,0,0,5,5,5,,,,,,,,,,,,,708.4105564000201,709.4131620000117,709.4131620000117,714.215546499996,714.215546499996,707.4282216000138,710.4115889899782,None,None,,714.215546499996,707.4282216000138,,,,,,,,,,,,,1,001,2022_Jan_09_2033,expDesign,2021.2.3,60.07748795349682,
0,0,0,1,1,313,131,2113,3,0,3,0,0,6,6,6,,,,,,,,,,,,,725.199925599969,726.2002625999739,726.2002625999739,731.0066003999673,731.0066003999673,724.2190595999709,727.2025189899956,None,None,,731.0066003999673,724.2190595999709,,,,,,,,,,,,,1,001,2022_Jan_09_2033,expDesign,2021.2.3,60.07748795349682,
0,1,0,1,0,223,332,1212,3,0,3,0,0,7,7,7,,,,,,,,,,,,,741.9905065000057,742.9927157000056,742.9927157000056,747.7950407000026,747.7950407000026,741.012125600013,743.9933819899685,None,None,,747.7950407000026,741.012125600013,,,,,,,,,,,,,1,001,2022_Jan_09_2033,expDesign,2021.2.3,60.07748795349682,
1,1,0,0,0,321,132,3232,3,0,3,0,0,8,8,8,,,,,,,,,,,,,758.7834158000187,759.783897700021,759.783897700021,764.5858953999705,764.5858953999705,757.800826199993,760.7850209899713,763.6021822000039,None,,764.5858953999705,757.800826199993,,,,,,,,,,,,,1,001,2022_Jan_09_2033,expDesign,2021.2.3,60.07748795349682,
1,1,0,1,0,123,231,2123,3,0,3,0,0,9,9,9,,,,,,,,,,,,,775.5741707999841,776.5745992999873,776.5745992999873,781.3769466999802,781.3769466999802,774.5912867999868,777.5752961900085,780.3971035999712,None,,781.3769466999802,774.5912867999868,,,,,,,,,,,,,1,001,2022_Jan_09_2033,expDesign,2021.2.3,60.07748795349682,
0,0,1,1,1,113,321,3123,3,0,3,0,0,10,10,10,,,,,,,,,,,,,792.3651268000249,793.3657177999848,793.3657177999848,798.1660998999723,798.1660998999723,791.3827995000174,794.3662303899997,797.1823705999996,None,,798.1660998999723,791.3827995000174,,,,,,,,,,,,,1,001,2022_Jan_09_2033,expDesign,2021.2.3,60.07748795349682,
1,0,0,1,0,323,231,3112,3,0,3,0,0,11,11,11,,,,,,,,,,,,,809.1558118999819,810.1575960000046,810.1575960000046,814.958775600011,814.958775600011,808.1732362000039,811.1570366900065,813.973158799985,None,,814.958775600011,808.1732362000039,,,,,,,,,,,,,1,001,2022_Jan_09_2033,expDesign,2021.2.3,60.07748795349682,
1,1,0,1,1,213,121,1331,3,0,3,0,0,12,12,12,,,,,,,,,,,,,825.9468183999998,826.9472128999769,826.9472128999769,831.7476705000154,831.7476705000154,824.9613345999969,827.9473376900074,830.7639853999717,None,,831.7476705000154,824.9613345999969,,,,,,,,,,,,,1,001,2022_Jan_09_2033,expDesign,2021.2.3,60.07748795349682,
1,0,0,1,0,113,221,3122,3,0,3,0,0,13,13,13,,,,,,,,,,,,,842.7366633000202,843.7369417999871,843.7369417999871,848.5400972000207,848.5400972000207,841.7565258999821,844.7370802900056,847.5548262000084,None,,848.5400972000207,841.7565258999821,,,,,,,,,,,,,1,001,2022_Jan_09_2033,expDesign,2021.2.3,60.07748795349682,
0,0,1,0,1,313,122,3312,3,0,3,0,0,14,14,14,,,,,,,,,,,,,859.5284535000101,860.5289464999805,860.5289464999805,865.3312360999989,865.3312360999989,858.5461431000149,861.529532589973,None,None,,865.3312360999989,858.5461431000149,,,,,,,,,,,,,1,001,2022_Jan_09_2033,expDesign,2021.2.3,60.07748795349682,
0,0,0,1,1,232,321,3121,3,0,3,0,0,15,15,15,,,,,,,,,,,,,876.3180550999823,877.3188010000158,877.3188010000158,882.1208711999934,882.1208711999934,875.3368428000249,878.3212228900171,None,None,,882.1208711999934,875.3368428000249,,,,,,,,,,,,,1,001,2022_Jan_09_2033,expDesign,2021.2.3,60.07748795349682,
1,1,0,0,0,212,123,1332,3,0,3,0,0,16,16,16,,,,,,,,,,,,,893.1074667000212,894.1106707999716,894.1106707999716,898.9256327999756,898.9090953000123,892.1245846999809,895.1111840899918,None,None,,898.9090953000123,892.1245846999809,,,,,,,,,,,,,1,001,2022_Jan_09_2033,expDesign,2021.2.3,60.07748795349682,
0,1,1,1,1,213,321,3232,3,0,3,0,0,17,17,17,,,,,,,,,,,,,909.9012665000046,910.9016884000157,910.9016884000157,915.7039531000191,915.7039531000191,908.9185154999723,911.9036654900061,None,None,,915.7039531000191,908.9185154999723,,,,,,,,,,,,,1,001,2022_Jan_09_2033,expDesign,2021.2.3,60.07748795349682,
0,1,1,0,0,231,312,1121,3,0,3,0,0,18,18,18,,,,,,,,,,,,,926.6922689999919,927.6927321999683,927.6927321999683,932.4972909999778,932.4972909999778,925.7096022000187,928.6942296899739,None,None,,932.4972909999778,925.7096022000187,,,,,,,,,,,,,1,001,2022_Jan_09_2033,expDesign,2021.2.3,60.07748795349682,
0,0,1,0,0,312,121,3223,3,0,3,0,0,19,19,19,,,,,,,,,,,,,943.4829674999928,944.4833998999675,944.4833998999675,949.2871509999968,949.2871509999968,942.4985276000225,945.4839607900009,None,None,,949.2871509999968,942.4985276000225,,,,,,,,,,,,,1,001,2022_Jan_09_2033,expDesign,2021.2.3,60.07748795349682,
0,1,0,0,1,132,221,2333,3,0,3,0,0,20,20,20,,,,,,,,,,,,,960.2722772000125,961.2712833000114,961.2712833000114,966.0728005999699,966.0728005999699,959.2866191000212,962.2721313900198,None,None,,966.0728005999699,959.2866191000212,,,,,,,,,,,,,1,001,2022_Jan_09_2033,expDesign,2021.2.3,60.07748795349682,
1,1,1,0,0,123,231,3211,3,0,3,0,0,21,21,21,,,,,,,,,,,,,977.0635195000214,978.0650218999945,978.0650218999945,982.8685834999778,982.8685834999778,976.0826522000134,979.064523289993,981.8823437999818,None,,982.8685834999778,976.0826522000134,,,,,,,,,,,,,1,001,2022_Jan_09_2033,expDesign,2021.2.3,60.07748795349682,
1,0,1,1,1,123,331,2221,3,0,3,0,0,22,22,22,,,,,,,,,,,,,993.8571839000215,994.8744397999835,994.8560242999811,999.6585209000041,999.6585209000041,992.8726846000063,995.8567798899836,998.6731789999758,None,,999.6585209000041,992.8726846000063,,,,,,,,,,,,,1,001,2022_Jan_09_2033,expDesign,2021.2.3,60.07748795349682,
1,0,1,0,1,212,121,2322,3,0,3,0,0,23,23,23,,,,,,,,,,,,,1010.6447132999892,1011.6469174000085,1011.6469174000085,1016.4491149000241,1016.4491149000241,1009.6966652999981,1012.6473153899657,1015.4619439999806,None,,1016.4491149000241,1009.6966652999981,,,,,,,,,,,,,1,001,2022_Jan_09_2033,expDesign,2021.2.3,60.07748795349682,
1,0,1,0,0,132,323,1333,3,0,3,0,0,24,24,24,,,,,,,,,,,,,1027.4362113000243,1028.4391220000107,1028.4391220000107,1033.2531190000009,1033.2362449999782,1026.4539490999887,1029.4384560900157,1032.2582992999814,None,,1033.2362449999782,1026.4539490999887,,,,,,,,,,,,,1,001,2022_Jan_09_2033,expDesign,2021.2.3,60.07748795349682,
1,1,1,0,1,323,231,2311,3,0,3,0,0,25,25,25,,,,,,,,,,,,,1044.2285177999875,1045.2275185000035,1045.2275185000035,1050.0301386999781,1050.0301386999781,1043.2458529999712,1046.2296862899907,1049.0459111999953,None,,1050.0301386999781,1043.2458529999712,,,,,,,,,,,,,1,001,2022_Jan_09_2033,expDesign,2021.2.3,60.07748795349682,
1,0,1,0,1,332,121,1213,3,0,3,0,0,26,26,26,,,,,,,,,,,,,1061.0194803000195,1062.0228842999786,1062.0228842999786,1066.8384726999793,1066.823544599989,1060.03680609999,1063.0188956900033,None,None,,1066.823544599989,1060.03680609999,,,,,,,,,,,,,1,001,2022_Jan_09_2033,expDesign,2021.2.3,60.07748795349682,
1,1,0,1,1,232,123,1221,3,0,3,0,0,27,27,27,,,,,,,,,,,,,1077.808693900006,1078.8127782000229,1078.8127782000229,1083.6115307,1083.6115307,1076.8260743999854,1079.8117999899782,None,None,,1083.6115307,1076.8260743999854,,,,,,,,,,,,,1,001,2022_Jan_09_2033,expDesign,2021.2.3,60.07748795349682,
0,1,0,1,1,323,232,2231,3,0,3,0,0,28,28,28,,,,,,,,,,,,,1094.602763700008,1095.6026657000184,1095.6026657000184,1100.400801300013,1100.400801300013,1093.619029900001,1096.5978939900174,None,None,,1100.400801300013,1093.619029900001,,,,,,,,,,,,,1,001,2022_Jan_09_2033,expDesign,2021.2.3,60.07748795349682,
1,0,1,1,0,321,212,2322,3,0,3,0,0,29,29,29,,,,,,,,,,,,,1111.3966296999715,1112.410144399968,1112.3935902999947,1117.1946971999714,1117.1946971999714,1110.4101267000078,1113.3942955900216,None,None,,1117.1946971999714,1110.4101267000078,,,,,,,,,,,,,1,001,2022_Jan_09_2033,expDesign,2021.2.3,60.07748795349682,
0,0,1,0,1,121,213,1232,3,0,3,0,0,30,30,30,,,,,,,,,,,,,1128.1870498000062,1129.2019624999957,1129.1846256999997,1133.986021800025,1133.986021800025,1127.2183036999777,1130.1856139899696,1132.9999703000067,None,,1133.986021800025,1127.2183036999777,,,,,,,,,,,,,1,001,2022_Jan_09_2033,expDesign,2021.2.3,60.07748795349682,
1,0,1,0,1,321,213,2311,3,0,3,0,0,31,31,31,,,,,,,,,,,,,1144.9751315999893,1145.9753090000013,1145.9753090000013,1150.7784621000174,1150.7784621000174,1143.9929300000076,1146.9754279899876,1149.7891340000206,None,,1150.7784621000174,1143.9929300000076,,,,,,,,,,,,,1,001,2022_Jan_09_2033,expDesign,2021.2.3,60.07748795349682,
0,1,1,0,1,313,232,3213,4,0,4,0,0,0,0,0,,,,,,,1191.1949453999987,None,space,20.732755200006068,1191.1949453999987,None,1212.9545008999994,1213.9534862000146,1213.9534862000146,1218.759549600014,1218.7420888000051,None,1214.955770790018,1217.7748017999693,"['num_1', 'num_3']","[1.6166212999960408, 1.836588700010907]",1218.7420888000051,None,1160.7815425000153,None,space,20.400261100032367,1160.7815425000153,None,,,,,,,1,001,2022_Jan_09_2033,expDesign,2021.2.3,60.07748795349682,
0,1,0,0,1,322,213,1112,4,0,4,0,0,1,1,1,,,,,,,,,,,,,1229.7305657999823,1230.7279196999734,1230.7279196999734,1235.5318452999927,1235.5318452999927,1228.7459692999837,1231.7304202899918,None,None,,1235.5318452999927,1228.7459692999837,,,,,,,,,,,,,1,001,2022_Jan_09_2033,expDesign,2021.2.3,60.07748795349682,
0,1,1,1,1,121,233,2223,4,0,4,0,0,2,2,2,,,,,,,,,,,,,1246.5163874999853,1247.5177641999908,1247.5177641999908,1252.323232499999,1252.323232499999,1245.5325260999962,1248.51809128999,None,None,,1252.323232499999,1245.5325260999962,,,,,,,,,,,,,1,001,2022_Jan_09_2033,expDesign,2021.2.3,60.07748795349682,
0,1,0,0,0,313,232,2332,4,0,4,0,0,3,3,3,,,,,,,,,,,,,1263.3126018000185,1264.312841899984,1264.312841899984,1269.115186400013,1269.115186400013,1262.329007000022,1265.3125703899655,None,None,,1269.115186400013,1262.329007000022,,,,,,,,,,,,,1,001,2022_Jan_09_2033,expDesign,2021.2.3,60.07748795349682,
1,1,1,0,1,313,132,3122,4,0,4,0,0,4,4,4,,,,,,,,,,,,,1280.1008747000014,1281.1023931999807,1281.1023931999807,1285.9064695999841,1285.9064695999841,1279.119021099992,1282.10106409,None,"['num_1', 'num_3']","[6.043100000009872, 6.231074400013313]",1285.9064695999841,1279.119021099992,,,,,,,,,,,,,1,001,2022_Jan_09_2033,expDesign,2021.2.3,60.07748795349682,
0,1,0,1,1,123,231,2121,4,0,4,0,0,5,5,5,,,,,,,,,,,,,1296.8909569000243,1297.8935435999883,1297.8935435999883,1302.6957821999677,1302.6957821999677,1295.9098074000212,1298.8919924900051,None,None,,1302.6957821999677,1295.9098074000212,,,,,,,,,,,,,1,001,2022_Jan_09_2033,expDesign,2021.2.3,60.07748795349682,
0,0,1,1,0,313,132,1123,4,0,4,0,0,6,6,6,,,,,,,,,,,,,1313.683765899972,1314.6847655000165,1314.6847655000165,1319.4880165000213,1319.4880165000213,1312.7004111999995,1315.6842165899811,None,"['num_1', 'num_2', 'num_3', 'num_1']","[2.6965029999846593, 2.8965628999867477, 3.079483200039249, 3.2304769000038505]",1319.4880165000213,1312.7004111999995,,,,,,,,,,,,,1,001,2022_Jan_09_2033,expDesign,2021.2.3,60.07748795349682,
1,1,0,1,0,321,233,2321,4,0,4,0,0,7,7,7,,,,,,,,,,,,,1330.473538500024,1331.4754576999694,1331.4754576999694,1336.278965800011,1336.278965800011,1329.4913994999952,1332.4755130899953,1335.2917705000145,"['num_2', 'num_3']","[1.3876150000141934, 1.6375203999923542]",1336.278965800011,1329.4913994999952,,,,,,,,,,,,,1,001,2022_Jan_09_2033,expDesign,2021.2.3,60.07748795349682,
1,0,1,1,0,123,312,1123,4,0,4,0,0,8,8,8,,,,,,,,,,,,,1347.2652573999949,1348.267009800009,1348.267009800009,1353.0696302999859,1353.0696302999859,1346.2834022999741,1349.2682051899842,1352.0824549000245,"['num_1', 'num_1']","[0.9848313999827951, 1.123817199957557]",1353.0696302999859,1346.2834022999741,,,,,,,,,,,,,1,001,2022_Jan_09_2033,expDesign,2021.2.3,60.07748795349682,
0,0,0,0,1,212,121,1311,4,0,4,0,0,9,9,9,,,,,,,,,,,,,1364.0554987000069,1365.0572910999763,1365.0572910999763,1369.862229899969,1369.862229899969,1363.0733212999767,1366.057686789974,None,"['num_1', 'num_2']","[1.6341858999803662, 8.19817069999408]",1369.862229899969,1363.0733212999767,,,,,,,,,,,,,1,001,2022_Jan_09_2033,expDesign,2021.2.3,60.07748795349682,
1,1,1,1,1,131,212,1322,4,0,4,0,0,10,10,10,,,,,,,,,,,,,1380.8501596999704,1381.8487399999867,1381.8487399999867,1386.6523815999972,1386.6523815999972,1379.865156200016,1382.8505454900092,1385.6671308000223,"['num_1', 'num_1', 'num_1']","[1.9630257000098936, 2.1029951000236906, 2.474017200001981]",1386.6523815999972,1379.865156200016,,,,,,,,,,,,,1,001,2022_Jan_09_2033,expDesign,2021.2.3,60.07748795349682,
1,0,0,0,0,312,223,3322,4,0,4,0,0,11,11,11,,,,,,,,,,,,,1397.6368203000166,1398.6379679000238,1398.6379679000238,1403.440280699986,1403.440280699986,1396.6530515999766,1399.6378088899887,1402.4553579000058,None,,1403.440280699986,1396.6530515999766,,,,,,,,,,,,,1,001,2022_Jan_09_2033,expDesign,2021.2.3,60.07748795349682,
1,1,1,1,0,212,123,1313,4,0,4,0,0,12,12,12,,,,,,,,,,,,,1414.4309410999995,1415.4302435999853,1415.4302435999853,1420.2322032999946,1420.2322032999946,1413.4461641000235,1416.4312538900062,None,None,,1420.2322032999946,1413.4461641000235,,,,,,,,,,,,,1,001,2022_Jan_09_2033,expDesign,2021.2.3,60.07748795349682,
0,0,1,0,1,132,213,3113,4,0,4,0,0,13,13,13,,,,,,,,,,,,,1431.2206513999845,1432.2192669999786,1432.2192669999786,1437.0233732999768,1437.0233732999768,1430.236894199974,1433.2215973899815,None,None,,1437.0233732999768,1430.236894199974,,,,,,,,,,,,,1,001,2022_Jan_09_2033,expDesign,2021.2.3,60.07748795349682,
1,1,0,0,1,123,312,2223,4,0,4,0,0,14,14,14,,,,,,,,,,,,,1448.0135373999947,1449.0242186000105,1449.007923999976,1453.814354799979,1453.814354799979,1447.0280730000231,1450.0084730899775,1452.8116606000112,None,,1453.814354799979,1447.0280730000231,,,,,,,,,,,,,1,001,2022_Jan_09_2033,expDesign,2021.2.3,60.07748795349682,
1,1,0,0,1,121,213,2311,4,0,4,0,0,15,15,15,,,,,,,,,,,,,1464.8023387999856,1465.8188741999911,1465.8039262000239,1470.6033753000083,1470.6033753000083,1463.8166864999803,1466.8032823899644,None,None,,1470.6033753000083,1463.8166864999803,,,,,,,,,,,,,1,001,2022_Jan_09_2033,expDesign,2021.2.3,60.07748795349682,
0,1,1,0,0,132,313,1332,4,0,4,0,0,16,16,16,,,,,,,,,,,,,1481.5893641000148,1482.591432599991,1482.591432599991,1487.397182399989,1487.397182399989,1480.6056518999976,1483.5922916899667,None,None,,1487.397182399989,1480.6056518999976,,,,,,,,,,,,,1,001,2022_Jan_09_2033,expDesign,2021.2.3,60.07748795349682,
0,0,1,1,0,123,232,1211,4,0,4,0,0,17,17,17,,,,,,,,,,,,,1498.3844487000024,1499.3850343999802,1499.3850343999802,1504.1864124999847,1504.1864124999847,1497.4101653000107,1500.3854426900157,1503.201051299984,None,,1504.1864124999847,1497.4101653000107,,,,,,,,,,,,,1,001,2022_Jan_09_2033,expDesign,2021.2.3,60.07748795349682,
1,0,0,1,0,231,313,3121,4,0,4,0,0,18,18,18,,,,,,,,,,,,,1515.1732995000202,1516.1769535000203,1516.1769535000203,1520.977921099984,1520.977921099984,1514.192007799982,1517.176381389983,1519.989646299975,None,,1520.977921099984,1514.192007799982,,,,,,,,,,,,,1,001,2022_Jan_09_2033,expDesign,2021.2.3,60.07748795349682,
1,0,1,1,0,131,213,2331,4,0,4,0,0,19,19,19,,,,,,,,,,,,,1531.9641539999866,1532.9645834999974,1532.9645834999974,1537.7686316000181,1537.7686316000181,1530.9846307999687,1533.968061290006,1536.7811723999912,None,,1537.7686316000181,1530.9846307999687,,,,,,,,,,,,,1,001,2022_Jan_09_2033,expDesign,2021.2.3,60.07748795349682,
0,0,1,0,1,232,123,3222,4,0,4,0,0,20,20,20,,,,,,,,,,,,,1548.757127800025,1549.7575835000025,1549.7575835000025,1554.557715300005,1554.557715300005,1547.774945000012,1550.7559683899976,1553.5737251000246,None,,1554.557715300005,1547.774945000012,,,,,,,,,,,,,1,001,2022_Jan_09_2033,expDesign,2021.2.3,60.07748795349682,
0,1,0,1,0,313,232,1123,4,0,4,0,0,21,21,21,,,,,,,,,,,,,1565.5479812999838,1566.5625235000043,1566.546489899978,1571.3503518999787,1571.3503518999787,1564.564766000025,1567.546984989976,1570.3662797000143,None,,1571.3503518999787,1564.564766000025,,,,,,,,,,,,,1,001,2022_Jan_09_2033,expDesign,2021.2.3,60.07748795349682,
0,0,0,1,1,322,231,3121,4,0,4,0,0,22,22,22,,,,,,,,,,,,,1582.3390992999775,1583.3414476999897,1583.3414476999897,1588.1397510999814,1588.1397510999814,1581.3571432000026,1584.3399586900136,1587.1533015000168,None,,1588.1397510999814,1581.3571432000026,,,,,,,,,,,,,1,001,2022_Jan_09_2033,expDesign,2021.2.3,60.07748795349682,
1,0,1,1,1,132,313,2332,4,0,4,0,0,23,23,23,,,,,,,,,,,,,1599.1293038000003,1600.1296535999863,1600.1296535999863,1604.9317721999832,1604.9317721999832,1598.1467413000064,1601.1302226899656,None,None,,1604.9317721999832,1598.1467413000064,,,,,,,,,,,,,1,001,2022_Jan_09_2033,expDesign,2021.2.3,60.07748795349682,
1,1,0,1,0,122,313,3311,4,0,4,0,0,24,24,24,,,,,,,,,,,,,1615.920310800022,1616.9207150000148,1616.9207150000148,1621.7257374000037,1621.7257374000037,1614.9371951000066,1617.923805789987,None,None,,1621.7257374000037,1614.9371951000066,,,,,,,,,,,,,1,001,2022_Jan_09_2033,expDesign,2021.2.3,60.07748795349682,
1,0,1,1,1,221,333,3131,4,0,4,0,0,25,25,25,,,,,,,,,,,,,1632.7093947000103,1633.7088657999993,1633.7088657999993,1638.513027500012,1638.513027500012,1631.7310073999688,1634.7105764899984,None,None,,1638.513027500012,1631.7310073999688,,,,,,,,,,,,,1,001,2022_Jan_09_2033,expDesign,2021.2.3,60.07748795349682,
1,1,0,0,0,113,232,3132,4,0,4,0,0,26,26,26,,,,,,,,,,,,,1649.5013254000223,1650.5017983000143,1650.5017983000143,1655.3267815000145,1655.3061890000245,1648.5176406999817,1651.5024359899921,None,None,,1655.3061890000245,1648.5176406999817,,,,,,,,,,,,,1,001,2022_Jan_09_2033,expDesign,2021.2.3,60.07748795349682,
1,1,0,0,1,323,131,3323,4,0,4,0,0,27,27,27,,,,,,,,,,,,,1666.295608800021,1667.3101405000198,1667.2941192999715,1672.096074400004,1672.096074400004,1665.3099959999672,1668.2942484899772,None,None,,1672.096074400004,1665.3099959999672,,,,,,,,,,,,,1,001,2022_Jan_09_2033,expDesign,2021.2.3,60.07748795349682,
0,0,0,0,1,223,331,3113,4,0,4,0,0,28,28,28,,,,,,,,,,,,,1683.0854775999906,1684.086036599998,1684.086036599998,1688.8880478999927,1688.8880478999927,1682.1036981000216,1685.0853364899754,1687.8988169999793,None,,1688.8880478999927,1682.1036981000216,,,,,,,,,,,,,1,001,2022_Jan_09_2033,expDesign,2021.2.3,60.07748795349682,
0,0,0,0,0,231,312,1212,4,0,4,0,0,29,29,29,,,,,,,,,,,,,1699.8753025999758,1700.8767699999735,1700.8767699999735,1705.6815685000038,1705.6815685000038,1698.8929750000243,1701.8777424899977,None,None,,1705.6815685000038,1698.8929750000243,,,,,,,,,,,,,1,001,2022_Jan_09_2033,expDesign,2021.2.3,60.07748795349682,
0,0,1,0,0,323,131,1223,4,0,4,0,0,30,30,30,,,,,,,,,,,,,1716.666315199982,1717.6663381999824,1717.6663381999824,1722.468594099977,1722.468594099977,1715.6838861000142,1718.6687046899692,1721.4845923999674,None,,1722.468594099977,1715.6838861000142,,,,,,,,,,,,,1,001,2022_Jan_09_2033,expDesign,2021.2.3,60.07748795349682,
1,0,1,1,0,221,313,3232,4,0,4,0,0,31,31,31,,,,,,,,,,,,,1733.4568289999734,1734.4576815000037,1734.4576815000037,1739.2597501999699,1739.2597501999699,1732.4756684000022,1735.4581885899765,1738.2775510000065,None,,1739.2597501999699,1732.4756684000022,,,,,,,,,,,,,1,001,2022_Jan_09_2033,expDesign,2021.2.3,60.07748795349682,
1,1,1,0,1,121,232,2321,5,0,5,0,0,0,0,0,,,,,,,1891.0238642999902,None,space,38.12850940000499,1891.0238642999902,None,1930.1785057000234,1931.1944054000196,1931.1792797999806,1935.9797753000166,1935.9797753000166,None,1932.1795108900055,None,None,,1935.9797753000166,None,1749.264891400002,None,space,131.75556559994584,1749.264891400002,None,,,,,,,1,001,2022_Jan_09_2033,expDesign,2021.2.3,60.07748795349682,
1,1,1,1,1,132,321,3313,5,0,5,0,0,1,1,1,,,,,,,,,,,,,1946.967294299975,1947.9683015000192,1947.9683015000192,1952.7704442999675,1952.7704442999675,None,1948.9682458900147,1951.786296700011,None,,1952.7704442999675,None,,,,,,,,,,,,,1,001,2022_Jan_09_2033,expDesign,2021.2.3,60.07748795349682,
0,0,1,0,1,332,111,2233,5,0,5,0,0,2,2,2,,,,,,,,,,,,,1963.7608886000235,1964.7596432999708,1964.7596432999708,1969.5634357000235,1969.5634357000235,1962.7826324999915,1965.7612932899733,None,None,,1969.5634357000235,1962.7826324999915,,,,,,,,,,,,,1,001,2022_Jan_09_2033,expDesign,2021.2.3,60.07748795349682,
0,0,0,1,1,232,313,3221,5,0,5,0,0,3,3,3,,,,,,,,,,,,,1980.5478104000213,1981.5563953000237,1981.5563953000237,1986.368570599996,1986.3512305999757,1979.564057999989,1982.5515268899849,None,None,,1986.3512305999757,1979.564057999989,,,,,,,,,,,,,1,001,2022_Jan_09_2033,expDesign,2021.2.3,60.07748795349682,
1,1,1,1,1,213,322,2233,5,0,5,0,0,4,4,4,,,,,,,,,,,,,1997.3442861000076,1998.3590214999858,1998.3422514999984,2003.1445843999973,2003.1445843999973,1996.3592827999964,1999.3427687899907,None,None,,2003.1445843999973,1996.3592827999964,,,,,,,,,,,,,1,001,2022_Jan_09_2033,expDesign,2021.2.3,60.07748795349682,
0,0,0,0,0,323,232,1212,5,0,5,0,0,5,5,5,,,,,,,,,,,,,2014.1347149999929,2015.151815899997,2015.1334285999765,2019.9343282000045,2019.9343282000045,2013.1523380000144,2016.134793090017,2018.9504741000128,None,,2019.9343282000045,2013.1523380000144,,,,,,,,,,,,,1,001,2022_Jan_09_2033,expDesign,2021.2.3,60.07748795349682,
0,1,0,1,0,121,313,1222,5,0,5,0,0,6,6,6,,,,,,,,,,,,,2030.9274667999707,2031.9409190000151,2031.9267925000167,2036.7264548999956,2036.7264548999956,2029.9443647000007,2032.9265075900125,2035.7414006000035,None,,2036.7264548999956,2029.9443647000007,,,,,,,,,,,,,1,001,2022_Jan_09_2033,expDesign,2021.2.3,60.07748795349682,
0,1,1,1,0,123,212,2223,5,0,5,0,0,7,7,7,,,,,,,,,,,,,2047.7147919000126,2048.7156238000025,2048.7156238000025,2053.517415900016,2053.517415900016,2046.7322362000123,2049.7156884899828,2052.531039799971,None,,2053.517415900016,2046.7322362000123,,,,,,,,,,,,,1,001,2022_Jan_09_2033,expDesign,2021.2.3,60.07748795349682,
1,0,0,1,0,113,222,2123,5,0,5,0,0,8,8,8,,,,,,,,,,,,,2064.505692899984,2065.5061167000094,2065.5061167000094,2070.3082045000046,2070.3082045000046,2063.523189999978,2066.506562089978,2069.323242500017,None,,2070.3082045000046,2063.523189999978,,,,,,,,,,,,,1,001,2022_Jan_09_2033,expDesign,2021.2.3,60.07748795349682,
1,1,1,0,1,313,121,3321,5,0,5,0,0,9,9,9,,,,,,,,,,,,,2081.296766399988,2082.2998569000047,2082.2998569000047,2087.099084799993,2087.099084799993,2080.3158744999673,2083.297630790004,2086.116809099971,None,,2087.099084799993,2080.3158744999673,,,,,,,,,,,,,1,001,2022_Jan_09_2033,expDesign,2021.2.3,60.07748795349682,
0,1,0,0,0,123,312,3211,5,0,5,0,0,10,10,10,,,,,,,,,,,,,2098.0875805999967,2099.089914000011,2099.089914000011,2103.890153300017,2103.890153300017,2097.105614400003,2100.0885014899773,2102.9028332000016,None,,2103.890153300017,2097.105614400003,,,,,,,,,,,,,1,001,2022_Jan_09_2033,expDesign,2021.2.3,60.07748795349682,
1,0,0,0,0,313,222,1332,5,0,5,0,0,11,11,11,,,,,,,,,,,,,2114.8782072999747,2115.8786894999794,2115.8786894999794,2120.6808275000076,2120.6808275000076,2113.894876400009,2116.8791068899677,2119.695884099987,None,,2120.6808275000076,2113.894876400009,,,,,,,,,,,,,1,001,2022_Jan_09_2033,expDesign,2021.2.3,60.07748795349682,
0,0,0,0,0,313,121,1323,5,0,5,0,0,12,12,12,,,,,,,,,,,,,2131.669106199988,2132.6695592000033,2132.6695592000033,2137.4733307000133,2137.4733307000133,2130.68834220001,2133.6700358899775,None,None,,2137.4733307000133,2130.68834220001,,,,,,,,,,,,,1,001,2022_Jan_09_2033,expDesign,2021.2.3,60.07748795349682,
1,1,1,0,1,131,323,3222,5,0,5,0,0,13,13,13,,,,,,,,,,,,,2148.4629583000205,2149.477212900005,2149.4642438999726,2154.2655060999678,2154.2655060999678,2147.477560599975,2150.4638863899977,None,None,,2154.2655060999678,2147.477560599975,,,,,,,,,,,,,1,001,2022_Jan_09_2033,expDesign,2021.2.3,60.07748795349682,
1,0,0,1,0,232,323,2122,5,0,5,0,0,14,14,14,,,,,,,,,,,,,2165.250994000002,2166.25134409999,2166.25134409999,2171.0537521999795,2171.0537521999795,2164.268384199997,2167.2519089899956,None,None,,2171.0537521999795,2164.268384199997,,,,,,,,,,,,,1,001,2022_Jan_09_2033,expDesign,2021.2.3,60.07748795349682,
0,0,0,0,1,121,312,2312,5,0,5,0,0,15,15,15,,,,,,,,,,,,,2182.043676499976,2183.062153799983,2183.0414926999947,2187.847163199971,2187.847163199971,2181.0595929999836,2184.042912789993,None,None,,2187.847163199971,2181.0595929999836,,,,,,,,,,,,,1,001,2022_Jan_09_2033,expDesign,2021.2.3,60.07748795349682,
0,1,0,1,0,121,313,3323,5,0,5,0,0,16,16,16,,,,,,,,,,,,,2198.832909399993,2199.832075699989,2199.832075699989,2204.635591199971,2204.635591199971,2197.8508141000057,2200.8337567899957,None,None,,2204.635591199971,2197.8508141000057,,,,,,,,,,,,,1,001,2022_Jan_09_2033,expDesign,2021.2.3,60.07748795349682,
1,0,1,0,1,123,212,2231,5,0,5,0,0,17,17,17,,,,,,,,,,,,,2215.6237690999988,2216.6243122000014,2216.6243122000014,2221.429081899987,2221.429081899987,2214.643726899987,2217.6265683900215,2220.441787699994,None,,2221.429081899987,2214.643726899987,,,,,,,,,,,,,1,001,2022_Jan_09_2033,expDesign,2021.2.3,60.07748795349682,
1,0,0,1,1,212,121,3133,5,0,5,0,0,18,18,18,,,,,,,,,,,,,2232.4147697999724,2233.415176599985,2233.415176599985,2238.217375700013,2238.217375700013,2231.432202600001,2234.4157078899675,2237.2316586999805,None,,2238.217375700013,2231.432202600001,,,,,,,,,,,,,1,001,2022_Jan_09_2033,expDesign,2021.2.3,60.07748795349682,
0,1,1,0,1,211,323,1321,5,0,5,0,0,19,19,19,,,,,,,,,,,,,2249.2056450999808,2250.206070400018,2250.206070400018,2255.008246499987,2255.008246499987,2248.222946499998,2251.206516389991,None,None,,2255.008246499987,2248.222946499998,,,,,,,,,,,,,1,001,2022_Jan_09_2033,expDesign,2021.2.3,60.07748795349682,
1,0,1,1,0,132,313,3212,5,0,5,0,0,20,20,20,,,,,,,,,,,,,2265.998205700016,2267.0136320000165,2266.9985768999904,2271.7991659999825,2271.7991659999825,2265.014104200003,2267.997468089999,2270.814126399986,None,,2271.7991659999825,2265.014104200003,,,,,,,,,,,,,1,001,2022_Jan_09_2033,expDesign,2021.2.3,60.07748795349682,
1,0,1,1,0,323,211,1312,5,0,5,0,0,21,21,21,,,,,,,,,,,,,2282.7874213000177,2283.7896129,2283.7896129,2288.591755200003,2288.591755200003,2281.805390399997,2284.788509389991,2287.6039248000016,None,,2288.591755200003,2281.805390399997,,,,,,,,,,,,,1,001,2022_Jan_09_2033,expDesign,2021.2.3,60.07748795349682,
1,0,1,0,0,332,121,3331,5,0,5,0,0,22,22,22,,,,,,,,,,,,,2299.581219499989,2300.595438999997,2300.579777600011,2305.381059599982,2305.381059599982,2298.5999101999914,2301.579278290004,None,None,,2305.381059599982,2298.5999101999914,,,,,,,,,,,,,1,001,2022_Jan_09_2033,expDesign,2021.2.3,60.07748795349682,
1,1,0,1,1,312,231,3122,5,0,5,0,0,23,23,23,,,,,,,,,,,,,2316.369330300018,2317.3697221999755,2317.3697221999755,2322.1714425000246,2322.1714425000246,2315.3901995000197,2318.3701546900206,2321.1715109000215,None,,2322.1714425000246,2315.3901995000197,,,,,,,,,,,,,1,001,2022_Jan_09_2033,expDesign,2021.2.3,60.07748795349682,
1,1,0,1,0,332,123,3311,5,0,5,0,0,24,24,24,,,,,,,,,,,,,2333.1587552999845,2334.1607096000225,2334.1607096000225,2338.962878899998,2338.962878899998,2332.177884200006,2335.1639194899703,None,None,,2338.962878899998,2332.177884200006,,,,,,,,,,,,,1,001,2022_Jan_09_2033,expDesign,2021.2.3,60.07748795349682,
1,0,0,1,0,313,232,2333,5,0,5,0,0,25,25,25,,,,,,,,,,,,,2349.94957170001,2350.951514300017,2350.951514300017,2355.7538470000145,2355.7538470000145,2348.9693417000235,2351.9519887899746,None,None,,2355.7538470000145,2348.9693417000235,,,,,,,,,,,,,1,001,2022_Jan_09_2033,expDesign,2021.2.3,60.07748795349682,
0,1,1,1,0,313,231,1121,5,0,5,0,0,26,26,26,,,,,,,,,,,,,2366.742160899972,2367.7425475000055,2367.7425475000055,2372.5422491999925,2372.5422491999925,2365.7622074999963,2368.7389379900064,None,None,,2372.5422491999925,2365.7622074999963,,,,,,,,,,,,,1,001,2022_Jan_09_2033,expDesign,2021.2.3,60.07748795349682,
0,0,0,0,1,121,212,1333,5,0,5,0,0,27,27,27,,,,,,,,,,,,,2383.5306607999955,2384.530863400025,2384.530863400025,2389.3313484999817,2389.3313484999817,2382.5517059999984,2385.53181549001,None,None,,2389.3313484999817,2382.5517059999984,,,,,,,,,,,,,1,001,2022_Jan_09_2033,expDesign,2021.2.3,60.07748795349682,
0,1,0,0,1,223,132,1332,5,0,5,0,0,28,28,28,,,,,,,,,,,,,2400.321539399971,2401.3219601999735,2401.3219601999735,2406.1224259000155,2406.1224259000155,2399.338207599998,2402.324668390001,None,None,,2406.1224259000155,2399.338207599998,,,,,,,,,,,,,1,001,2022_Jan_09_2033,expDesign,2021.2.3,60.07748795349682,
0,1,1,1,1,122,233,1322,5,0,5,0,0,29,29,29,,,,,,,,,,,,,2417.11248359998,2418.113635000016,2418.113635000016,2422.917364699999,2422.917364699999,2416.1286210999824,2419.1145670899655,2421.9325039999676,None,,2422.917364699999,2416.1286210999824,,,,,,,,,,,,,1,001,2022_Jan_09_2033,expDesign,2021.2.3,60.07748795349682,
0,1,1,0,0,212,121,3131,5,0,5,0,0,30,30,30,,,,,,,,,,,,,2433.9059268999845,2434.906233499991,2434.906233499991,2439.721021300007,2439.7042413000017,2432.9251448999858,2435.906690389989,None,None,,2439.7042413000017,2432.9251448999858,,,,,,,,,,,,,1,001,2022_Jan_09_2033,expDesign,2021.2.3,60.07748795349682,
0,0,1,0,1,132,313,3223,5,0,5,0,0,31,31,31,,,,,,,,,,,,,2450.6965080000227,2451.7134721999755,2451.696888300008,2456.497909299971,2456.497909299971,2449.710891499999,2452.6964111899956,2455.5138805999886,None,,2456.497909299971,2449.710891499999,,,,,,,,,,,,,1,001,2022_Jan_09_2033,expDesign,2021.2.3,60.07748795349682,
,,,,,,,,,,,,,,,,,,,,,,,,,,,,,,,,,,,,,,,,2466.501258399978,None,space,39.988057799986564,2466.501258399978,None,2506.5193362999707,None,space,3.239005699986592,2506.5193362999707,None,1,001,2022_Jan_09_2033,expDesign,2021.2.3,60.07748795349682,
