iStimSide,iTargSide,iSideFirst,iStim,iGen,sylTarg,sylDist,sylCent,block.thisRepN,block.thisTrialN,block.thisN,block.thisIndex,trials.thisRepN,trials.thisTrialN,trials.thisN,trials.thisIndex,expStartText.started,expStartText.stopped,expStartKey.keys,expStartKey.rt,expStartKey.started,expStartKey.stopped,blockStartText.started,blockStartText.stopped,blockStartKey.keys,blockStartKey.rt,blockStartKey.started,blockStartKey.stopped,visCueText.started,visCueText.stopped,fixDot.started,fixDot.stopped,fixDotBlue.started,fixDotBlue.stopped,soundStim.started,soundStim.stopped,trialKey.keys,trialKey.rt,trialKey.started,trialKey.stopped,blockEndText.started,blockEndText.stopped,blockEndKey.keys,blockEndKey.rt,blockEndKey.started,blockEndKey.stopped,expEndText.started,expEndText.stopped,expEndKey.keys,expEndKey.rt,expEndKey.started,expEndKey.stopped,participant,session,date,expName,psychopyVersion,frameRate,
,,,,,,,,,,,,,,,,11.216141100041568,None,space,2.3301784000359476,12.183701100060716,None,,,,,,,,,,,,,,,,,,,,,,,,,,,,,,,1,001,2022_Jan_11_1752,expStairCase,2021.2.3,60.014715622509684,
0,1,0,1,0,323,232,3221,0,0,0,0,0,0,0,0,,,,,,,24.50906670000404,None,space,0.9467644999967888,24.50906670000404,None,26.476361399982125,27.47696870006621,27.47696870006621,32.27982150006574,32.27982150006574,None,28.477264720061793,31.294564199983142,['down'],[0.7630093999905512],32.27982150006574,None,,,,,,,,,,,,,1,001,2022_Jan_11_1752,expStairCase,2021.2.3,60.014715622509684,
1,0,0,1,0,131,213,3232,0,0,0,0,0,1,1,1,,,,,,,,,,,,,41.2667818000773,42.26499649998732,42.26499649998732,47.06990120001137,47.06990120001137,None,43.268050820031206,46.082576200016774,"['down', 'down']","[0.47990710008889437, 2.346941400086507]",47.06990120001137,None,,,,,,,,,,,,,1,001,2022_Jan_11_1752,expStairCase,2021.2.3,60.014715622509684,
1,0,1,1,1,121,232,2321,0,0,0,0,0,2,2,2,,,,,,,,,,,,,56.05261870007962,57.05445340008009,57.05445340008009,61.859327299986035,61.859327299986035,55.069492700044066,58.05642792005092,60.872050200006925,['down'],[2.810450499993749],61.859327299986035,55.069492700044066,,,,,,,,,,,,,1,001,2022_Jan_11_1752,expStairCase,2021.2.3,60.014715622509684,
1,0,0,0,0,112,333,1332,0,0,0,0,0,3,3,3,,,,,,,,,,,,,70.84726209996734,71.84687200002372,71.84687200002372,76.65010379999876,76.65010379999876,69.86242370004766,72.84771321997978,75.66463720006868,['up'],[0.671620300039649],76.65010379999876,69.86242370004766,,,,,,,,,,,,,1,001,2022_Jan_11_1752,expStairCase,2021.2.3,60.014715622509684,
1,1,1,0,0,212,323,2331,0,0,0,0,0,4,4,4,,,,,,,,,,,,,85.63664340006653,86.63757720007561,86.63757720007561,91.43950650002807,91.43950650002807,84.65359450003598,87.63938122002874,90.45211880002171,None,,91.43950650002807,84.65359450003598,,,,,,,,,,,,,1,001,2022_Jan_11_1752,expStairCase,2021.2.3,60.014715622509684,
1,1,0,1,0,121,213,3323,0,0,0,0,0,5,5,5,,,,,,,,,,,,,100.42464970005676,101.4256405000342,101.4256405000342,106.2295992000727,106.2295992000727,99.4397904999787,102.42768272005488,105.24433090002276,['up'],[3.0570466000353917],106.2295992000727,99.4397904999787,,,,,,,,,,,,,1,001,2022_Jan_11_1752,expStairCase,2021.2.3,60.014715622509684,
0,0,0,1,1,231,313,1211,0,0,0,0,0,6,6,6,,,,,,,,,,,,,115.21549700002652,116.21756770007778,116.21756770007778,121.01817210006993,121.01817210006993,114.23469010007102,117.21770882005804,120.03456810000353,['down'],[0.3924721999792382],121.01817210006993,114.23469010007102,,,,,,,,,,,,,1,001,2022_Jan_11_1752,expStairCase,2021.2.3,60.014715622509684,
0,0,1,1,0,233,121,2232,0,0,0,0,0,7,7,7,,,,,,,,,,,,,130.00567550002597,131.0060357999755,131.0060357999755,135.80987950006966,135.80987950006966,129.02496539999265,132.00720752000342,134.8247204000363,['down'],[0.4667646000161767],135.80987950006966,129.02496539999265,,,,,,,,,,,,,1,001,2022_Jan_11_1752,expStairCase,2021.2.3,60.014715622509684,
0,0,1,0,1,123,312,1312,0,0,0,0,0,8,8,8,,,,,,,,,,,,,144.79626760003157,145.797624800005,145.797624800005,150.59983479999937,150.59983479999937,143.81485099997371,146.7978077200707,149.61453320004512,['down'],[0.9217376000015065],150.59983479999937,143.81485099997371,,,,,,,,,,,,,1,001,2022_Jan_11_1752,expStairCase,2021.2.3,60.014715622509684,
1,0,1,1,1,122,231,1311,0,0,0,0,0,9,9,9,,,,,,,,,,,,,159.58718719996978,160.58647970005404,160.58647970005404,165.3898693000665,165.3898693000665,158.60477730003186,161.58766302005387,164.40467479999643,['down'],[0.37566519994288683],165.3898693000665,158.60477730003186,,,,,,,,,,,,,1,001,2022_Jan_11_1752,expStairCase,2021.2.3,60.014715622509684,
1,0,1,1,1,131,312,1333,0,0,0,0,0,10,10,10,,,,,,,,,,,,,174.37691110000014,175.3774090000661,175.3774090000661,180.17833690007683,180.17833690007683,173.39432359999046,176.3763772200793,179.19449919997714,['down'],[0.32218459993600845],180.17833690007683,173.39432359999046,,,,,,,,,,,,,1,001,2022_Jan_11_1752,expStairCase,2021.2.3,60.014715622509684,
0,1,1,0,0,311,123,2312,0,0,0,0,0,11,11,11,,,,,,,,,,,,,189.16680230002385,190.16703959996812,190.16703959996812,194.96881540003233,194.96881540003233,188.18834250001237,191.1697040200699,None,['down'],[2.268659400055185],194.96881540003233,188.18834250001237,,,,,,,,,,,,,1,001,2022_Jan_11_1752,expStairCase,2021.2.3,60.014715622509684,
0,0,1,1,1,333,121,2332,0,0,0,0,0,12,12,12,,,,,,,,,,,,,203.95726170006674,204.9744178999681,204.9574926000787,209.7599581000395,209.7599581000395,202.97470889997203,205.95803032005205,208.77488939999603,['down'],[1.8484995999606326],209.7599581000395,202.97470889997203,,,,,,,,,,,,,1,001,2022_Jan_11_1752,expStairCase,2021.2.3,60.014715622509684,
1,0,1,1,0,312,221,3121,0,0,0,0,0,13,13,13,,,,,,,,,,,,,218.74720820004586,219.75109530007467,219.75109530007467,224.56653000006918,224.5481692000758,217.76468580006622,220.74753282002638,223.56455020001158,['down'],[0.3952376999659464],224.5481692000758,217.76468580006622,,,,,,,,,,,,,1,001,2022_Jan_11_1752,expStairCase,2021.2.3,60.014715622509684,
0,1,0,1,0,223,132,2322,0,0,0,0,0,14,14,14,,,,,,,,,,,,,233.53685190004762,234.5377795000095,234.5377795000095,239.33823920006398,239.33823920006398,232.55307040002663,235.53641941996756,238.35454259999096,['up'],[0.3751549000153318],239.33823920006398,232.55307040002663,,,,,,,,,,,,,1,001,2022_Jan_11_1752,expStairCase,2021.2.3,60.014715622509684,
1,0,1,0,0,131,312,2112,0,0,0,0,0,15,15,15,,,,,,,,,,,,,248.3265269000549,249.32776969997212,249.32776969997212,254.13293039996643,254.13293039996643,247.3448232000228,250.33124372006858,None,None,,254.13293039996643,247.3448232000228,,,,,,,,,,,,,1,001,2022_Jan_11_1752,expStairCase,2021.2.3,60.014715622509684,
0,0,1,1,0,232,323,2313,0,0,0,0,0,16,16,16,,,,,,,,,,,,,263.1186459000455,264.1168222000124,264.1168222000124,268.92001590004656,268.92001590004656,262.1337585999863,265.1181460200343,267.9346258000005,['up'],[0.441322400001809],268.92001590004656,262.1337585999863,,,,,,,,,,,,,1,001,2022_Jan_11_1752,expStairCase,2021.2.3,60.014715622509684,
0,0,0,0,1,123,231,2332,0,0,0,0,0,17,17,17,,,,,,,,,,,,,277.9071162000764,278.90758280002046,278.90758280002046,283.7119620000012,283.7119620000012,276.9279905000003,279.9075817200821,282.7222394000273,None,,283.7119620000012,276.9279905000003,,,,,,,,,,,,,1,001,2022_Jan_11_1752,expStairCase,2021.2.3,60.014715622509684,
0,1,0,1,1,213,321,1311,0,0,0,0,0,18,18,18,,,,,,,,,,,,,292.6983448000392,293.69825310003944,293.69825310003944,298.499979800079,298.499979800079,291.7149546999717,294.69773271998855,297.5144754999783,['up'],[0.6343463999219239],298.499979800079,291.7149546999717,,,,,,,,,,,,,1,001,2022_Jan_11_1752,expStairCase,2021.2.3,60.014715622509684,
1,1,1,0,0,131,323,1123,0,0,0,0,0,19,19,19,,,,,,,,,,,,,307.48719270003494,308.4876286999788,308.4876286999788,313.28971619997174,313.28971619997174,306.5046692000469,309.4876166200731,312.30216249998193,None,,313.28971619997174,306.5046692000469,,,,,,,,,,,,,1,001,2022_Jan_11_1752,expStairCase,2021.2.3,60.014715622509684,
1,0,1,1,0,332,121,2113,0,0,0,0,0,20,20,20,,,,,,,,,,,,,322.27630919998046,323.27778790006414,323.27778790006414,328.0799307000125,328.0799307000125,321.29485579999164,324.2765584199689,327.0946010000771,['down'],[1.3372854000190273],328.0799307000125,321.29485579999164,,,,,,,,,,,,,1,001,2022_Jan_11_1752,expStairCase,2021.2.3,60.014715622509684,
0,1,0,1,1,313,231,3323,0,0,0,0,0,21,21,21,,,,,,,,,,,,,337.0668930000393,338.0674857000122,338.0674857000122,342.86830009997357,342.86830009997357,336.08380630007014,339.06645782005506,341.8821877000155,None,,342.86830009997357,336.08380630007014,,,,,,,,,,,,,1,001,2022_Jan_11_1752,expStairCase,2021.2.3,60.014715622509684,
0,0,0,1,1,221,133,3113,0,0,0,0,0,22,22,22,,,,,,,,,,,,,351.85565440007485,352.85779839998577,352.85779839998577,357.6595835000044,357.6595835000044,350.873760699993,353.8580984200118,356.6722171000438,['down'],[0.44162559998221695],357.6595835000044,350.873760699993,,,,,,,,,,,,,1,001,2022_Jan_11_1752,expStairCase,2021.2.3,60.014715622509684,
1,0,0,0,1,213,321,1221,0,0,0,0,0,23,23,23,,,,,,,,,,,,,366.64676420006435,367.64747540000826,367.64747540000826,372.4494335000636,372.4494335000636,365.66468130005524,368.6509771199664,None,None,,372.4494335000636,365.66468130005524,,,,,,,,,,,,,1,001,2022_Jan_11_1752,expStairCase,2021.2.3,60.014715622509684,
0,1,1,0,0,313,232,1122,0,0,0,0,0,24,24,24,,,,,,,,,,,,,381.44029699999373,382.45504670008086,382.4375500000315,387.23987310007215,387.23987310007215,380.4549679000629,383.4380053200759,386.2557975000236,None,,387.23987310007215,380.4549679000629,,,,,,,,,,,,,1,001,2022_Jan_11_1752,expStairCase,2021.2.3,60.014715622509684,
1,1,0,0,1,312,231,2133,0,0,0,0,0,25,25,25,,,,,,,,,,,,,396.2278416000772,397.24087019998115,397.2242492000805,402.0321410000324,402.0321410000324,395.2436134000309,398.22435982006135,401.0433555999771,None,,402.0321410000324,395.2436134000309,,,,,,,,,,,,,1,001,2022_Jan_11_1752,expStairCase,2021.2.3,60.014715622509684,
0,1,0,1,1,212,323,2133,0,0,0,0,0,26,26,26,,,,,,,,,,,,,411.017018500017,412.0177496999968,412.0177496999968,416.81976540002506,416.81976540002506,410.03371940006036,413.01863562006037,415.83242340001743,['up'],[0.4622887000441551],416.81976540002506,410.03371940006036,,,,,,,,,,,,,1,001,2022_Jan_11_1752,expStairCase,2021.2.3,60.014715622509684,
1,1,1,1,1,121,212,2122,0,0,0,0,0,27,27,27,,,,,,,,,,,,,425.80706919997465,426.80679990001954,426.80679990001954,431.60916610003915,431.60916610003915,424.8238219000632,427.80788671998306,430.6226263999706,['up'],[4.024832000024617],431.60916610003915,424.8238219000632,,,,,,,,,,,,,1,001,2022_Jan_11_1752,expStairCase,2021.2.3,60.014715622509684,
0,1,0,0,0,323,232,2121,0,0,0,0,0,28,28,28,,,,,,,,,,,,,440.5973848999711,441.59697229997255,441.59697229997255,446.3995686999988,446.3995686999988,439.6130437999964,442.59808432001154,445.41466320003383,None,,446.3995686999988,439.6130437999964,,,,,,,,,,,,,1,001,2022_Jan_11_1752,expStairCase,2021.2.3,60.014715622509684,
1,1,0,1,0,123,312,1223,0,0,0,0,0,29,29,29,,,,,,,,,,,,,455.387099100044,456.3874548000749,456.3874548000749,461.19208349997643,461.19208349997643,454.40431250003166,457.39105462008155,None,['up'],[1.6368946000002325],461.19208349997643,454.40431250003166,,,,,,,,,,,,,1,001,2022_Jan_11_1752,expStairCase,2021.2.3,60.014715622509684,
1,1,1,0,1,132,321,2231,0,0,0,0,0,30,30,30,,,,,,,,,,,,,470.17800750001334,471.1785592000233,471.1785592000233,475.9781725000357,475.9781725000357,469.19443630008027,472.17654982004314,None,None,,475.9781725000357,469.19443630008027,,,,,,,,,,,,,1,001,2022_Jan_11_1752,expStairCase,2021.2.3,60.014715622509684,
0,1,0,0,1,313,231,1133,0,0,0,0,0,31,31,31,,,,,,,,,,,,,484.9673839000752,485.9703764000442,485.9703764000442,490.77057970000897,490.77057970000897,483.9866591000464,486.97128562005236,None,None,,490.77057970000897,483.9866591000464,,,,,,,,,,,,,1,001,2022_Jan_11_1752,expStairCase,2021.2.3,60.014715622509684,
,,,,,,,,,,,,,,,,,,,,,,,,,,,,,,,,,,,,,,,,498.77373290003743,None,space,2.2051528999581933,498.77373290003743,None,501.00621370004956,None,space,1.327675300068222,501.00621370004956,None,1,001,2022_Jan_11_1752,expStairCase,2021.2.3,60.014715622509684,
