iStimSide,iTargSide,iSideFirst,iStim,iGen,sylTarg,sylDist,sylCent,block.thisRepN,block.thisTrialN,block.thisN,block.thisIndex,trials.thisRepN,trials.thisTrialN,trials.thisN,trials.thisIndex,expStartText.started,expStartText.stopped,expStartKey.keys,expStartKey.rt,expStartKey.started,expStartKey.stopped,blockStartText.started,blockStartText.stopped,blockStartKey.keys,blockStartKey.rt,blockStartKey.started,blockStartKey.stopped,visCueText.started,visCueText.stopped,fixDot.started,fixDot.stopped,fixDotBlue.started,fixDotBlue.stopped,soundStim.started,soundStim.stopped,trialKey.keys,trialKey.started,trialKey.stopped,blockEndText.started,blockEndText.stopped,blockEndKey.keys,blockEndKey.rt,blockEndKey.started,blockEndKey.stopped,participant,session,date,expName,psychopyVersion,frameRate,
,,,,,,,,,,,,,,,,6.814732999999251,None,space,1.2582378999995854,7.76845510000021,None,,,,,,,,,,,,,,,,,,,,,,,,2,001,2022_May_11_1728,expDesign_,2021.2.3,59.821277949516166,
0,1,0,0,0,312,121,1311,0,0,0,0,0,0,0,0,,,,,,,19.058776099998795,None,space,0.9675790999990568,19.058776099998795,None,21.061893000000055,22.063934199999494,22.063934199999494,26.867604899998696,26.867604899998696,None,23.064476189999187,25.88160179999977,None,26.867604899998696,None,,,,,,,2,001,2022_May_11_1728,expDesign_,2021.2.3,59.821277949516166,
1,0,1,0,1,212,133,1132,0,0,0,0,0,1,1,1,,,,,,,,,,,,,35.8726616999993,36.87651209999967,36.86009000000013,41.66243679999934,41.66243679999934,None,37.85950888999905,None,None,41.66243679999934,None,,,,,,,2,001,2022_May_11_1728,expDesign_,2021.2.3,59.821277949516166,
0,1,0,0,1,233,322,3212,0,0,0,0,0,2,2,2,,,,,,,,,,,,,50.66820279999956,51.670637299999726,51.670637299999726,56.47513059999983,56.47513059999983,None,52.67152558999878,55.48913720000019,None,56.47513059999983,None,,,,,,,2,001,2022_May_11_1728,expDesign_,2021.2.3,59.821277949516166,
1,1,1,1,1,313,231,3233,0,0,0,0,0,3,3,3,,,,,,,,,,,,,65.44914439999957,66.46613059999981,66.4481151,71.25280459999885,71.25280459999885,None,67.44894678999917,None,None,71.25280459999885,None,,,,,,,2,001,2022_May_11_1728,expDesign_,2021.2.3,59.821277949516166,
0,0,0,0,0,122,211,1213,0,0,0,0,0,4,4,4,,,,,,,,,,,,,80.26036139999997,81.26087369999914,81.26087369999914,86.06598419999864,86.06598419999864,None,82.26164078999936,85.07934459999888,None,86.06598419999864,None,,,,,,,2,001,2022_May_11_1728,expDesign_,2021.2.3,59.821277949516166,
0,1,1,0,0,113,232,2312,0,0,0,0,0,5,5,5,,,,,,,,,,,,,95.0699096999997,96.07371889999922,96.05840539999917,100.8593619000003,100.8593619000003,None,97.05725839000006,None,None,100.8593619000003,None,,,,,,,2,001,2022_May_11_1728,expDesign_,2021.2.3,59.821277949516166,
1,1,0,1,1,131,212,1121,0,0,0,0,0,6,6,6,,,,,,,,,,,,,109.86828779999996,110.86915099999896,110.86915099999896,115.67197909999959,115.65556970000034,None,111.86933968999874,None,None,115.65556970000034,None,,,,,,,2,001,2022_May_11_1728,expDesign_,2021.2.3,59.821277949516166,
0,0,1,1,0,321,213,1323,0,0,0,0,0,7,7,7,,,,,,,,,,,,,124.67779439999867,125.67853619999914,125.66136449999976,130.46632519999912,130.46632519999912,None,126.66426269000003,129.47944309999912,None,130.46632519999912,None,,,,,,,2,001,2022_May_11_1728,expDesign_,2021.2.3,59.821277949516166,
1,1,1,1,0,131,212,1222,0,0,0,0,0,8,8,8,,,,,,,,,,,,,139.44006959999933,140.44172249999974,140.44172249999974,145.2460855999998,145.2460855999998,None,141.44352598999905,None,None,145.2460855999998,None,,,,,,,2,001,2022_May_11_1728,expDesign_,2021.2.3,59.821277949516166,
1,1,0,1,0,211,132,3133,0,0,0,0,0,9,9,9,,,,,,,,,,,,,154.25356639999882,155.2550081999998,155.2550081999998,160.0580702999996,160.0580702999996,153.26818329999878,156.25515539000008,None,None,160.0580702999996,153.26818329999878,,,,,,,2,001,2022_May_11_1728,expDesign_,2021.2.3,59.821277949516166,
1,0,0,1,1,323,231,2331,0,0,0,0,0,10,10,10,,,,,,,,,,,,,169.07977989999927,170.08194989999902,170.06498289999945,174.86953259999973,174.86953259999973,None,171.06687478999885,None,None,174.86953259999973,None,,,,,,,2,001,2022_May_11_1728,expDesign_,2021.2.3,59.821277949516166,
0,0,0,1,0,321,212,3213,0,0,0,0,0,11,11,11,,,,,,,,,,,,,183.86058279999997,184.86175279999952,184.86175279999952,189.66556459999993,189.66556459999993,None,185.86354739000018,188.67914500000006,None,189.66556459999993,None,,,,,,,2,001,2022_May_11_1728,expDesign_,2021.2.3,59.821277949516166,
1,1,1,0,0,213,321,1212,0,0,0,0,0,12,12,12,,,,,,,,,,,,,198.66948930000035,199.67351309999867,199.65589670000008,204.46112879999964,204.46112879999964,None,200.65705998999948,None,None,204.46112879999964,None,,,,,,,2,001,2022_May_11_1728,expDesign_,2021.2.3,59.821277949516166,
1,0,0,0,1,331,212,1222,0,0,0,0,0,13,13,13,,,,,,,,,,,,,213.46532819999993,214.4674173000003,214.4674173000003,219.2722434999996,219.25620309999977,None,215.46890839000008,218.28539249999994,None,219.25620309999977,None,,,,,,,2,001,2022_May_11_1728,expDesign_,2021.2.3,59.821277949516166,
0,0,1,0,1,132,313,3123,0,0,0,0,0,14,14,14,,,,,,,,,,,,,228.26278850000017,229.26405299999897,229.26405299999897,234.06691769999998,234.06691769999998,None,230.26478009000022,None,None,234.06691769999998,None,,,,,,,2,001,2022_May_11_1728,expDesign_,2021.2.3,59.821277949516166,
1,0,0,0,0,131,323,3131,0,0,0,0,0,15,15,15,,,,,,,,,,,,,243.05749680000008,244.05901859999904,244.05901859999904,248.86295189999873,248.86295189999873,None,245.05815298999988,247.87647619999916,None,248.86295189999873,None,,,,,,,2,001,2022_May_11_1728,expDesign_,2021.2.3,59.821277949516166,
0,0,1,0,0,212,131,3313,0,0,0,0,0,16,16,16,,,,,,,,,,,,,257.8702336999995,258.87073690000034,258.85481489999984,263.657965299999,263.657965299999,None,259.85467298999976,None,None,263.657965299999,None,,,,,,,2,001,2022_May_11_1728,expDesign_,2021.2.3,59.821277949516166,
1,0,0,1,0,133,212,3111,0,0,0,0,0,17,17,17,,,,,,,,,,,,,272.6494574999997,273.64894110000023,273.64894110000023,278.45351779999874,278.45351779999874,None,274.6497162900003,277.46692710000025,None,278.45351779999874,None,,,,,,,2,001,2022_May_11_1728,expDesign_,2021.2.3,59.821277949516166,
0,0,1,1,1,212,123,1132,0,0,0,0,0,18,18,18,,,,,,,,,,,,,287.4583978999999,288.4605352999988,288.4605352999988,293.26461500000005,293.26461500000005,None,289.4616693899996,None,None,293.26461500000005,None,,,,,,,2,001,2022_May_11_1728,expDesign_,2021.2.3,59.821277949516166,
0,0,0,0,1,232,321,1222,0,0,0,0,0,19,19,19,,,,,,,,,,,,,302.25563619999957,303.25571299999865,303.25571299999865,308.06005879999975,308.0427192999996,None,304.24009878999897,None,None,308.0427192999996,None,,,,,,,2,001,2022_May_11_1728,expDesign_,2021.2.3,59.821277949516166,
0,0,0,1,1,312,231,1332,0,0,0,0,0,20,20,20,,,,,,,,,,,,,317.03469399999994,318.0346737,318.0346737,322.83854509999946,322.83854509999946,316.0464181999996,319.03526379000033,321.85269979999975,None,322.83854509999946,316.0464181999996,,,,,,,2,001,2022_May_11_1728,expDesign_,2021.2.3,59.821277949516166,
1,1,0,0,1,312,121,3221,0,0,0,0,0,21,21,21,,,,,,,,,,,,,331.8438088999992,332.84664089999933,332.84664089999933,337.6500020000003,337.6500020000003,330.8599097999995,333.84766249000023,336.66459609999947,None,337.6500020000003,330.8599097999995,,,,,,,2,001,2022_May_11_1728,expDesign_,2021.2.3,59.821277949516166,
1,0,1,0,0,131,312,1232,0,0,0,0,0,22,22,22,,,,,,,,,,,,,346.67186609999953,347.67396349999945,347.6563212000001,352.46230829999877,352.4452874999988,None,348.6590317899998,351.47627719999946,None,352.4452874999988,None,,,,,,,2,001,2022_May_11_1728,expDesign_,2021.2.3,59.821277949516166,
1,1,0,0,0,132,321,1133,0,0,0,0,0,23,23,23,,,,,,,,,,,,,361.4357977999989,362.45091779999893,362.4341869,367.2410951999991,367.2410951999991,360.46689049999986,363.4385574899996,366.2548705999998,None,367.2410951999991,360.46689049999986,,,,,,,2,001,2022_May_11_1728,expDesign_,2021.2.3,59.821277949516166,
0,1,1,1,1,131,323,3133,0,0,0,0,0,24,24,24,,,,,,,,,,,,,376.24862289999874,377.2495206000003,377.2495206000003,382.0531185,382.0359181999993,375.26348770000004,378.2508744899995,None,None,382.0359181999993,375.26348770000004,,,,,,,2,001,2022_May_11_1728,expDesign_,2021.2.3,59.821277949516166,
0,1,0,1,1,212,131,2112,0,0,0,0,0,25,25,25,,,,,,,,,,,,,391.0441190999991,392.0445925999993,392.0445925999993,396.84805810000034,396.83166469999924,390.05892179999864,393.04465579000026,395.86178850000033,None,396.83166469999924,390.05892179999864,,,,,,,2,001,2022_May_11_1728,expDesign_,2021.2.3,59.821277949516166,
1,0,1,1,1,312,123,3111,0,0,0,0,0,26,26,26,,,,,,,,,,,,,405.83644529999947,406.84048599999915,406.8229682000001,411.6261058,411.6261058,404.8521456999988,407.8240308899993,410.63996719999886,None,411.6261058,404.8521456999988,,,,,,,2,001,2022_May_11_1728,expDesign_,2021.2.3,59.821277949516166,
0,1,1,1,0,323,132,1131,0,0,0,0,0,27,27,27,,,,,,,,,,,,,420.6334522999987,421.6351416999987,421.6351416999987,426.43880910000007,426.43880910000007,419.649035299999,422.63537959000024,425.4520847999993,None,426.43880910000007,419.649035299999,,,,,,,2,001,2022_May_11_1728,expDesign_,2021.2.3,59.821277949516166,
1,0,1,1,0,131,213,2221,0,0,0,0,0,28,28,28,,,,,,,,,,,,,435.45965219999925,436.4627666999986,436.44615879999947,441.2506907999996,441.23426130000007,434.4609526999993,437.44768318999996,440.26415129999987,None,441.23426130000007,434.4609526999993,,,,,,,2,001,2022_May_11_1728,expDesign_,2021.2.3,59.821277949516166,
1,1,1,0,1,232,321,3332,0,0,0,0,0,29,29,29,,,,,,,,,,,,,450.25484460000007,451.2589029999999,451.24235450000015,456.0453185999995,456.0453185999995,449.25604360000034,452.2434773899993,None,None,456.0453185999995,449.25604360000034,,,,,,,2,001,2022_May_11_1728,expDesign_,2021.2.3,59.821277949516166,
0,1,0,1,0,232,321,1133,0,0,0,0,0,30,30,30,,,,,,,,,,,,,465.0523806000001,466.05321079999885,466.05321079999885,470.8581857999998,470.8581857999998,None,467.0546184900002,469.86925789999987,None,470.8581857999998,None,,,,,,,2,001,2022_May_11_1728,expDesign_,2021.2.3,59.821277949516166,
0,1,1,0,1,323,231,3111,0,0,0,0,0,31,31,31,,,,,,,,,,,,,479.86170649999985,480.8660297999995,480.8660297999995,485.6692401,485.6692401,None,481.8660292899993,484.6827076999998,None,485.6692401,None,,,,,,,2,001,2022_May_11_1728,expDesign_,2021.2.3,59.821277949516166,
,,,,,,,,,,,,,,,,,,,,,,,,,,,,,,,,,,,,,,,493.69142139999894,None,space,1.871073599999363,493.69142139999894,None,,,,,,,
