iStimSide,iTargSide,iSideFirst,iStim,iGen,sylTarg,sylDist,sylCent,block.thisRepN,block.thisTrialN,block.thisN,block.thisIndex,trials.thisRepN,trials.thisTrialN,trials.thisN,trials.thisIndex,expStartText.started,expStartText.stopped,expStartKey.keys,expStartKey.rt,expStartKey.started,expStartKey.stopped,blockStartText.started,blockStartText.stopped,blockStartKey.keys,blockStartKey.rt,blockStartKey.started,blockStartKey.stopped,visCueText.started,visCueText.stopped,fixDot.started,fixDot.stopped,fixDotBlue.started,fixDotBlue.stopped,soundStim.started,soundStim.stopped,trialKey.keys,trialKey.rt,trialKey.started,trialKey.stopped,blockEndText.started,blockEndText.stopped,blockEndKey.keys,blockEndKey.rt,blockEndKey.started,blockEndKey.stopped,participant,session,date,expName,psychopyVersion,frameRate,
,,,,,,,,,,,,,,,,11.993576599983498,None,space,7.840862099983497,12.943952999979956,None,,,,,,,,,,,,,,,,,,,,,,,,,2,001,2022_Apr_21_1103,expDesign_,2021.2.3,60.031468501287506,
1,0,0,0,0,132,211,1113,0,0,0,0,0,0,0,0,,,,,,,30.807984999992186,None,space,16.96859800000675,30.807984999992186,None,48.82262659998378,49.82370199999423,49.82370199999423,54.62729959998978,54.61121799997636,None,50.82445821999863,None,"['num_1', 'num_3', 'num_2']","[1.7096502000058535, 1.94925079998211, 2.149621599994134]",54.61121799997636,None,,,,,,,2,001,2022_Apr_21_1103,expDesign_,2021.2.3,60.031468501287506,
0,1,0,0,1,312,231,2232,0,0,0,0,0,1,1,1,,,,,,,,,,,,,63.618097699974896,64.61852219997672,64.60211089998484,69.40626509999856,69.40626509999856,None,65.60294361998967,None,None,,69.40626509999856,None,,,,,,,2,001,2022_Apr_21_1103,expDesign_,2021.2.3,60.031468501287506,
0,0,1,0,1,313,232,1313,0,0,0,0,0,2,2,2,,,,,,,,,,,,,78.41305689999717,79.41457159997663,79.39698530000169,84.20114759998978,84.20114759998978,None,80.39817851998669,83.21717910000007,None,,84.20114759998978,None,,,,,,,2,001,2022_Apr_21_1103,expDesign_,2021.2.3,60.031468501287506,
1,0,1,0,0,323,212,2332,0,0,0,0,0,3,3,3,,,,,,,,,,,,,93.20852779998677,94.2094021999801,94.2094021999801,99.01312499999767,99.01312499999767,92.22591999999713,95.2099869199883,None,None,,99.01312499999767,92.22591999999713,,,,,,,2,001,2022_Apr_21_1103,expDesign_,2021.2.3,60.031468501287506,
1,1,1,0,0,213,121,3312,0,0,0,0,0,4,4,4,,,,,,,,,,,,,108.03703039998072,109.03792009997414,109.02102519999607,113.82474149999325,113.82474149999325,None,110.02237402000173,None,None,,113.82474149999325,None,,,,,,,2,001,2022_Apr_21_1103,expDesign_,2021.2.3,60.031468501287506,
1,1,1,1,1,131,213,2223,0,0,0,0,0,5,5,5,,,,,,,,,,,,,122.81550050000078,123.81643079998321,123.81643079998321,128.62024079999537,128.62024079999537,None,124.81728521997866,127.63631499998155,None,,128.62024079999537,None,,,,,,,2,001,2022_Apr_21_1103,expDesign_,2021.2.3,60.031468501287506,
1,1,0,0,1,132,311,2122,0,0,0,0,0,6,6,6,,,,,,,,,,,,,137.62728149999748,138.6288981999969,138.6288981999969,143.43178399998578,143.41562939999858,None,139.62907971999084,142.44788699998753,None,,143.41562939999858,None,,,,,,,2,001,2022_Apr_21_1103,expDesign_,2021.2.3,60.031468501287506,
0,0,0,1,1,212,123,2123,0,0,0,0,0,7,7,7,,,,,,,,,,,,,152.42246599998907,153.42332549998537,153.42332549998537,158.22718950000126,158.22718950000126,None,154.4246371199988,None,None,,158.22718950000126,None,,,,,,,2,001,2022_Apr_21_1103,expDesign_,2021.2.3,60.031468501287506,
0,1,1,0,1,131,313,1323,0,0,0,0,0,8,8,8,,,,,,,,,,,,,167.23473629998625,168.23564659999101,168.21853489999194,173.02332279999973,173.00565379997715,None,169.21990011997696,172.03832549997605,None,,173.00565379997715,None,,,,,,,2,001,2022_Apr_21_1103,expDesign_,2021.2.3,60.031468501287506,
1,0,1,1,0,213,321,2221,0,0,0,0,0,9,9,9,,,,,,,,,,,,,182.0133093999757,183.01398299998255,183.01398299998255,187.81750489998376,187.80116819997784,None,184.0150058199797,None,None,,187.80116819997784,None,,,,,,,2,001,2022_Apr_21_1103,expDesign_,2021.2.3,60.031468501287506,
1,0,1,0,0,123,212,2113,0,0,0,0,0,10,10,10,,,,,,,,,,,,,196.8085944999766,197.8091776999936,197.8091776999936,202.61304430000018,202.61304430000018,195.82573119999142,198.8101140200015,None,None,,202.61304430000018,195.82573119999142,,,,,,,2,001,2022_Apr_21_1103,expDesign_,2021.2.3,60.031468501287506,
0,1,0,1,0,213,132,3221,0,0,0,0,0,11,11,11,,,,,,,,,,,,,211.63738279999234,212.63774679999915,212.62075229999027,217.42495259997668,217.42495259997668,None,213.62228162000247,None,None,,217.42495259997668,None,,,,,,,2,001,2022_Apr_21_1103,expDesign_,2021.2.3,60.031468501287506,
0,0,0,0,0,232,321,3132,0,0,0,0,0,12,12,12,,,,,,,,,,,,,226.4153144999873,227.41627989997505,227.41627989997505,232.22019849999924,232.22019849999924,None,228.41709721997904,231.23647899998468,None,,232.22019849999924,None,,,,,,,2,001,2022_Apr_21_1103,expDesign_,2021.2.3,60.031468501287506,
1,0,1,1,0,131,323,1132,0,0,0,0,0,13,13,13,,,,,,,,,,,,,241.22765829999116,242.22868909998215,242.22868909998215,247.03190599998925,247.03190599998925,None,243.228566019985,246.0477665999788,None,,247.03190599998925,None,,,,,,,2,001,2022_Apr_21_1103,expDesign_,2021.2.3,60.031468501287506,
1,0,0,0,0,232,313,3222,0,0,0,0,0,14,14,14,,,,,,,,,,,,,256.0226297999907,257.02348009997513,257.02348009997513,261.8272489999945,261.8106987999927,None,258.02396101997874,None,None,,261.8106987999927,None,,,,,,,2,001,2022_Apr_21_1103,expDesign_,2021.2.3,60.031468501287506,
0,1,1,1,1,312,123,2311,0,0,0,0,0,15,15,15,,,,,,,,,,,,,270.81742009997834,271.8185970999766,271.8185970999766,276.62242549998336,276.62242549998336,None,272.81914831999165,275.63880889999564,None,,276.62242549998336,None,,,,,,,2,001,2022_Apr_21_1103,expDesign_,2021.2.3,60.031468501287506,
1,0,1,1,0,121,212,2123,0,0,0,0,0,16,16,16,,,,,,,,,,,,,285.61309199998504,286.613813199976,286.613813199976,291.4176327000023,291.4176327000023,None,287.6144478199858,None,None,,291.4176327000023,None,,,,,,,2,001,2022_Apr_21_1103,expDesign_,2021.2.3,60.031468501287506,
1,1,0,0,0,213,131,2313,0,0,0,0,0,17,17,17,,,,,,,,,,,,,300.42501549998997,301.42617900000187,301.42617900000187,306.22955920000095,306.22955920000095,None,302.42694201999984,305.2457553999848,None,,306.22955920000095,None,,,,,,,2,001,2022_Apr_21_1103,expDesign_,2021.2.3,60.031468501287506,
0,1,1,0,1,132,221,2322,0,0,0,0,0,18,18,18,,,,,,,,,,,,,315.2201783999917,316.22090509999543,316.22090509999543,321.0249059999769,321.0249059999769,None,317.2215313199995,None,None,,321.0249059999769,None,,,,,,,2,001,2022_Apr_21_1103,expDesign_,2021.2.3,60.031468501287506,
1,0,0,0,1,121,313,1223,0,0,0,0,0,19,19,19,,,,,,,,,,,,,330.015508099983,331.01608770000166,331.01608770000166,335.8200794000004,335.8031143999833,None,332.01675881999836,334.8358794999949,None,,335.8031143999833,None,,,,,,,2,001,2022_Apr_21_1103,expDesign_,2021.2.3,60.031468501287506,
0,0,1,1,0,122,213,3123,0,0,0,0,0,20,20,20,,,,,,,,,,,,,344.79408809999586,345.7947632999858,345.7947632999858,350.5988393999869,350.5988393999869,343.8100335999916,346.7955387199909,None,None,,350.5988393999869,343.8100335999916,,,,,,,2,001,2022_Apr_21_1103,expDesign_,2021.2.3,60.031468501287506,
1,1,1,1,0,212,333,2322,0,0,0,0,0,21,21,21,,,,,,,,,,,,,359.60533559997566,360.60658059999696,360.60658059999696,365.41090489999624,365.41090489999624,358.6233311999822,361.6071835199982,364.4263941999816,None,,365.41090489999624,358.6233311999822,,,,,,,2,001,2022_Apr_21_1103,expDesign_,2021.2.3,60.031468501287506,
0,0,0,1,1,131,212,3321,0,0,0,0,0,22,22,22,,,,,,,,,,,,,374.4345566999982,375.4350697999762,375.4181650999817,380.22224370000185,380.22224370000185,None,376.41915662000247,379.2384708999889,None,,380.22224370000185,None,,,,,,,2,001,2022_Apr_21_1103,expDesign_,2021.2.3,60.031468501287506,
0,0,0,1,1,132,321,1213,0,0,0,0,0,23,23,23,,,,,,,,,,,,,389.2131839999929,390.2139573999739,390.2139573999739,395.0179936999921,395.0179936999921,None,391.2144166199869,None,None,,395.0179936999921,None,,,,,,,2,001,2022_Apr_21_1103,expDesign_,2021.2.3,60.031468501287506,
0,0,1,0,1,212,131,2121,0,0,0,0,0,24,24,24,,,,,,,,,,,,,404.00800619999063,405.0086462999752,405.0086462999752,409.8130209999799,409.8130209999799,None,406.0103224199993,408.82863969999016,None,,409.8130209999799,None,,,,,,,2,001,2022_Apr_21_1103,expDesign_,2021.2.3,60.031468501287506,
0,1,1,0,1,212,323,2211,0,0,0,0,0,25,25,25,,,,,,,,,,,,,418.8366214999987,419.8377839999739,419.8208975000016,424.6251442999928,424.6251442999928,None,420.8216224200005,None,None,,424.6251442999928,None,,,,,,,2,001,2022_Apr_21_1103,expDesign_,2021.2.3,60.031468501287506,
0,1,0,1,1,212,131,2133,0,0,0,0,0,26,26,26,,,,,,,,,,,,,433.61550569999963,434.61621589999413,434.61621589999413,439.4198602999968,439.4198602999968,None,435.61701891997654,438.4355628999765,None,,439.4198602999968,None,,,,,,,2,001,2022_Apr_21_1103,expDesign_,2021.2.3,60.031468501287506,
1,1,0,1,0,312,131,3231,0,0,0,0,0,27,27,27,,,,,,,,,,,,,448.4269754999841,449.4281508999993,449.4281508999993,454.2321793999872,454.2321793999872,None,450.4297573199874,453.2480956999934,None,,454.2321793999872,None,,,,,,,2,001,2022_Apr_21_1103,expDesign_,2021.2.3,60.031468501287506,
1,1,1,1,0,132,223,1132,0,0,0,0,0,28,28,28,,,,,,,,,,,,,463.22264599998016,464.2232784999942,464.2232784999942,469.0265491999744,469.0265491999744,None,465.2240349200001,None,None,,469.0265491999744,None,,,,,,,2,001,2022_Apr_21_1103,expDesign_,2021.2.3,60.031468501287506,
0,1,0,1,1,223,131,3121,0,0,0,0,0,29,29,29,,,,,,,,,,,,,478.0175190999871,479.01937870000256,479.01937870000256,483.82220729999244,483.82220729999244,None,480.01919161998376,482.8382739999797,None,,483.82220729999244,None,,,,,,,2,001,2022_Apr_21_1103,expDesign_,2021.2.3,60.031468501287506,
1,1,0,0,0,213,131,1113,0,0,0,0,0,30,30,30,,,,,,,,,,,,,492.81304089998594,493.81416169999284,493.81416169999284,498.6176397999807,498.6176397999807,None,494.8146076199919,None,None,,498.6176397999807,None,,,,,,,2,001,2022_Apr_21_1103,expDesign_,2021.2.3,60.031468501287506,
0,0,0,1,1,111,323,1213,0,0,0,0,0,31,31,31,,,,,,,,,,,,,507.6249048000027,508.6259292999748,508.6259292999748,513.4293661999982,513.4293661999982,None,509.62662201999046,512.445392499998,None,,513.4293661999982,None,,,,,,,2,001,2022_Apr_21_1103,expDesign_,2021.2.3,60.031468501287506,
0,1,0,1,1,232,323,3121,1,0,1,0,0,0,0,0,,,,,,,732.7388367999811,None,space,0.9021221000002697,732.7388367999811,None,734.6747832999972,735.6762824999751,735.6580871999904,740.462068199995,740.462068199995,None,736.6588221199781,739.4779541000025,None,,740.462068199995,None,521.4368309999991,None,space,201.28461299999617,521.4368309999991,None,2,001,2022_Apr_21_1103,expDesign_,2021.2.3,60.031468501287506,
0,0,0,0,1,122,313,1112,1,0,1,0,0,1,1,1,,,,,,,,,,,,,749.4860572999751,750.4875464999932,750.4697388999921,755.2739492999972,755.2739492999972,None,751.4709393199737,None,None,,755.2739492999972,None,,,,,,,2,001,2022_Apr_21_1103,expDesign_,2021.2.3,60.031468501287506,
0,0,1,0,1,123,212,2113,1,0,1,0,0,2,2,2,,,,,,,,,,,,,764.2646686999942,765.2655340999772,765.2655340999772,770.0691005999979,770.0691005999979,None,766.2667545199947,769.0853058999928,None,,770.0691005999979,None,,,,,,,2,001,2022_Apr_21_1103,expDesign_,2021.2.3,60.031468501287506,
1,0,1,1,0,311,122,1132,1,0,1,0,0,3,3,3,,,,,,,,,,,,,779.0599903999828,780.060627400002,780.060627400002,784.8643054999993,784.8643054999993,None,781.06121711999,None,None,,784.8643054999993,None,,,,,,,2,001,2022_Apr_21_1103,expDesign_,2021.2.3,60.031468501287506,
0,0,0,1,1,213,321,1212,1,0,1,0,0,4,4,4,,,,,,,,,,,,,793.8717362999741,794.8725287999841,794.8725287999841,799.6764058999834,799.6764058999834,None,795.8735289199831,None,None,,799.6764058999834,None,,,,,,,2,001,2022_Apr_21_1103,expDesign_,2021.2.3,60.031468501287506,
1,1,0,1,0,321,113,1221,1,0,1,0,0,5,5,5,,,,,,,,,,,,,808.6837051999755,809.6841933999967,809.6675523000013,814.4716589000018,814.4716589000018,None,810.6684394199838,813.4875500999915,None,,814.4716589000018,None,,,,,,,2,001,2022_Apr_21_1103,expDesign_,2021.2.3,60.031468501287506,
1,1,1,0,1,122,231,2211,1,0,1,0,0,6,6,6,,,,,,,,,,,,,823.4787202999869,824.4797655000002,824.4797655000002,829.2833442999981,829.2833442999981,None,825.4801015199773,None,None,,829.2833442999981,None,,,,,,,2,001,2022_Apr_21_1103,expDesign_,2021.2.3,60.031468501287506,
1,1,1,0,0,212,131,3232,1,0,1,0,0,7,7,7,,,,,,,,,,,,,838.2740097999922,839.2749164999987,839.2749164999987,844.0786839999782,844.062409199978,None,840.2587784200005,843.0785196999786,None,,844.062409199978,None,,,,,,,2,001,2022_Apr_21_1103,expDesign_,2021.2.3,60.031468501287506,
0,1,1,1,1,122,213,1332,1,0,1,0,0,8,8,8,,,,,,,,,,,,,853.0696334999811,854.070204299991,854.070204299991,858.8739331999968,858.8739331999968,None,855.0709597199893,None,None,,858.8739331999968,None,,,,,,,2,001,2022_Apr_21_1103,expDesign_,2021.2.3,60.031468501287506,
0,0,0,0,0,213,132,2332,1,0,1,0,0,9,9,9,,,,,,,,,,,,,867.8663583000016,868.8820349999878,868.8486145999923,873.6524401999777,873.6524401999777,None,869.8493001199822,872.6688465999905,None,,873.6524401999777,None,,,,,,,2,001,2022_Apr_21_1103,expDesign_,2021.2.3,60.031468501287506,
1,0,1,1,0,232,311,1132,1,0,1,0,0,10,10,10,,,,,,,,,,,,,882.6599505999766,883.6604768999969,883.6604768999969,888.4643326999794,888.4643326999794,881.6765949999972,884.6613337199815,None,None,,888.4643326999794,881.6765949999972,,,,,,,2,001,2022_Apr_21_1103,expDesign_,2021.2.3,60.031468501287506,
0,1,0,1,1,123,331,3133,1,0,1,0,0,11,11,11,,,,,,,,,,,,,897.4888134999783,898.489162199985,898.472534999979,903.2762882999959,903.2762882999959,None,899.47302071999,None,None,,903.2762882999959,None,,,,,,,2,001,2022_Apr_21_1103,expDesign_,2021.2.3,60.031468501287506,
0,1,1,0,0,213,131,3311,1,0,1,0,0,12,12,12,,,,,,,,,,,,,912.2673018999922,913.2677336999914,913.2677336999914,918.0713607999787,918.0713607999787,None,914.2683682200004,917.0877336999984,None,,918.0713607999787,None,,,,,,,2,001,2022_Apr_21_1103,expDesign_,2021.2.3,60.031468501287506,
1,0,0,0,0,212,321,3231,1,0,1,0,0,13,13,13,,,,,,,,,,,,,927.0790325999842,928.0793032999791,928.0793032999791,932.8837950000016,932.8837950000016,None,929.0802948199998,931.8994244999776,None,,932.8837950000016,None,,,,,,,2,001,2022_Apr_21_1103,expDesign_,2021.2.3,60.031468501287506,
1,0,0,0,0,113,231,3332,1,0,1,0,0,14,14,14,,,,,,,,,,,,,941.8738129999838,942.8755195999984,942.8755195999984,947.6786991999834,947.6786991999834,None,943.8752497199894,None,None,,947.6786991999834,None,,,,,,,2,001,2022_Apr_21_1103,expDesign_,2021.2.3,60.031468501287506,
0,0,0,1,0,213,132,1131,1,0,1,0,0,15,15,15,,,,,,,,,,,,,956.6694144999783,957.670232399978,957.670232399978,962.4741025999829,962.4741025999829,None,958.6709852199856,None,None,,962.4741025999829,None,,,,,,,2,001,2022_Apr_21_1103,expDesign_,2021.2.3,60.031468501287506,
0,0,1,1,1,323,231,2312,1,0,1,0,0,16,16,16,,,,,,,,,,,,,971.4648228999868,972.4655663000012,972.4655663000012,977.2694477999758,977.2694477999758,None,973.4657013199903,None,None,,977.2694477999758,None,,,,,,,2,001,2022_Apr_21_1103,expDesign_,2021.2.3,60.031468501287506,
1,1,1,1,1,121,313,3122,1,0,1,0,0,17,17,17,,,,,,,,,,,,,986.2759260999737,987.2777375000005,987.2777375000005,992.0815680999949,992.0815680999949,None,988.2778477199754,991.0970542999858,None,,992.0815680999949,None,,,,,,,2,001,2022_Apr_21_1103,expDesign_,2021.2.3,60.031468501287506,
0,0,1,0,0,111,323,3312,1,0,1,0,0,18,18,18,,,,,,,,,,,,,1001.0717120999761,1002.0723615999741,1002.0559328999952,1006.8596045000013,1006.8596045000013,None,1003.0564545199886,None,None,,1006.8596045000013,None,,,,,,,2,001,2022_Apr_21_1103,expDesign_,2021.2.3,60.031468501287506,
1,0,1,0,0,213,321,2211,1,0,1,0,0,19,19,19,,,,,,,,,,,,,1015.8665365999914,1016.8676380999968,1016.8676380999968,1021.6715431999764,1021.6546202999889,None,1017.868191720001,1020.6871250999975,None,,1021.6546202999889,None,,,,,,,2,001,2022_Apr_21_1103,expDesign_,2021.2.3,60.031468501287506,
0,1,0,1,0,333,222,1232,1,0,1,0,0,20,20,20,,,,,,,,,,,,,1030.6784932999872,1031.6793258999824,1031.6628476999758,1036.4666844999883,1036.4666844999883,1029.6787922999938,1032.663628519993,None,None,,1036.4666844999883,1029.6787922999938,,,,,,,2,001,2022_Apr_21_1103,expDesign_,2021.2.3,60.031468501287506,
1,1,1,0,0,123,231,2232,1,0,1,0,0,21,21,21,,,,,,,,,,,,,1045.4741600999841,1046.474808400002,1046.474808400002,1051.2784922999854,1051.2784922999854,None,1047.4753572199988,None,None,,1051.2784922999854,None,,,,,,,2,001,2022_Apr_21_1103,expDesign_,2021.2.3,60.031468501287506,
1,0,0,1,0,123,212,2311,1,0,1,0,0,22,22,22,,,,,,,,,,,,,1060.2699706999992,1061.2697144999984,1061.2527399999963,1066.0574264999887,1066.0574264999887,None,1062.253910919986,None,None,,1066.0574264999887,None,,,,,,,2,001,2022_Apr_21_1103,expDesign_,2021.2.3,60.031468501287506,
0,1,0,0,1,222,313,1221,1,0,1,0,0,23,23,23,,,,,,,,,,,,,1075.0815183999948,1076.0818321999977,1076.0653631000023,1080.8689894999843,1080.8689894999843,None,1077.0656130199932,None,None,,1080.8689894999843,None,,,,,,,2,001,2022_Apr_21_1103,expDesign_,2021.2.3,60.031468501287506,
0,1,0,0,1,332,121,2311,1,0,1,0,0,24,24,24,,,,,,,,,,,,,1089.8763124999823,1090.877040499996,1090.877040499996,1095.6810395999928,1095.6810395999928,None,1091.8780913200026,1094.6967984999937,None,,1095.6810395999928,None,,,,,,,2,001,2022_Apr_21_1103,expDesign_,2021.2.3,60.031468501287506,
1,0,0,1,1,133,212,1112,1,0,1,0,0,25,25,25,,,,,,,,,,,,,1104.6887811999768,1105.688925399998,1105.672072699992,1110.476222600002,1110.476222600002,None,1106.6733073200012,None,None,,1110.476222600002,None,,,,,,,2,001,2022_Apr_21_1103,expDesign_,2021.2.3,60.031468501287506,
1,0,1,0,1,212,131,1113,1,0,1,0,0,26,26,26,,,,,,,,,,,,,1119.4665901999979,1120.4674868999864,1120.4674868999864,1125.2710660999874,1125.2710660999874,None,1121.4678275199985,1124.2877031999815,None,,1125.2710660999874,None,,,,,,,2,001,2022_Apr_21_1103,expDesign_,2021.2.3,60.031468501287506,
1,1,1,0,0,321,112,2221,1,0,1,0,0,27,27,27,,,,,,,,,,,,,1134.278398399998,1135.2797369999753,1135.2797369999753,1140.0833246999828,1140.0833246999828,None,1136.279937719999,1139.0993622999813,None,,1140.0833246999828,None,,,,,,,2,001,2022_Apr_21_1103,expDesign_,2021.2.3,60.031468501287506,
0,1,0,0,0,132,323,2331,1,0,1,0,0,28,28,28,,,,,,,,,,,,,1149.0738880999852,1150.0747118,1150.0747118,1154.878371699975,1154.878371699975,None,1151.0753917199763,None,None,,1154.878371699975,None,,,,,,,2,001,2022_Apr_21_1103,expDesign_,2021.2.3,60.031468501287506,
0,1,0,1,1,231,312,3331,1,0,1,0,0,29,29,29,,,,,,,,,,,,,1163.8694512999791,1164.869738199981,1164.869738199981,1169.6737801999843,1169.6571761999803,None,1165.8710693199973,1168.689847599977,None,,1169.6571761999803,None,,,,,,,2,001,2022_Apr_21_1103,expDesign_,2021.2.3,60.031468501287506,
1,0,1,1,1,231,323,1132,1,0,1,0,0,30,30,30,,,,,,,,,,,,,1178.6642057999852,1179.6653942999837,1179.6653942999837,1184.4687857999816,1184.4687857999816,None,1180.665915519974,None,None,,1184.4687857999816,None,,,,,,,2,001,2022_Apr_21_1103,expDesign_,2021.2.3,60.031468501287506,
1,1,1,1,1,132,313,1221,1,0,1,0,0,31,31,31,,,,,,,,,,,,,1193.4762713999953,1194.4770644999808,1194.4770644999808,1199.280923399987,1199.2644775999943,None,1195.4778001199738,1198.2965998,None,,1199.2644775999943,None,,,,,,,2,001,2022_Apr_21_1103,expDesign_,2021.2.3,60.031468501287506,
,,,,,,,,,,,,,,,,,,,,,,1272.790087499976,None,space,7.131431600020733,1272.790087499976,None,,,,,,,,,,,,,1207.2874765000015,None,space,55.46574569999939,1207.2874765000015,None,,,,,,,
