iStimSide,iTargSide,iSideFirst,iStim,iGen,sylTarg,sylDist,sylCent,block.thisRepN,block.thisTrialN,block.thisN,block.thisIndex,trials.thisRepN,trials.thisTrialN,trials.thisN,trials.thisIndex,expStartText.started,expStartText.stopped,expStartKey.keys,expStartKey.rt,expStartKey.started,expStartKey.stopped,blockStartText.started,blockStartText.stopped,blockStartKey.keys,blockStartKey.rt,blockStartKey.started,blockStartKey.stopped,visCueText.started,visCueText.stopped,fixDot.started,fixDot.stopped,fixDotBlue.started,fixDotBlue.stopped,soundStim.started,soundStim.stopped,trialKey.keys,trialKey.rt,trialKey.started,trialKey.stopped,blockEndText.started,blockEndText.stopped,blockEndKey.keys,blockEndKey.rt,blockEndKey.started,blockEndKey.stopped,participant,session,date,expName,psychopyVersion,frameRate,
,,,,,,,,,,,,,,,,13.759468899999774,None,space,8.077022899999065,14.709877600000254,None,,,,,,,,,,,,,,,,,,,,,,,,,2,001,2022_May_11_1925,expDesign_,2021.2.3,59.81676927205051,
1,1,1,0,1,232,323,3321,2,0,2,0,0,0,0,0,,,,,,,32.82477490000019,None,space,1.9060260000005655,32.82477490000019,None,35.77660389999983,36.77747880000061,36.76123949999965,41.56507410000086,41.56507410000086,None,37.76146866000054,None,"['num_2', 'num_3', 'num_2']","[0.7098383000011381, 1.3338412000011886, 1.8939052000005177]",41.56507410000086,None,,,,,,,2,001,2022_May_11_1925,expDesign_,2021.2.3,59.81676927205051,
0,0,0,1,1,212,131,1213,2,0,2,0,0,1,1,1,,,,,,,,,,,,,50.58916599999975,51.58956140000009,51.5726795999999,56.37657500000023,56.37657500000023,None,52.57344255999997,None,"['num_2', 'num_1', 'num_2']","[0.47480220000034024, 1.3145503000014287, 1.9305409000007785]",56.37657500000023,None,,,,,,,2,001,2022_May_11_1925,expDesign_,2021.2.3,59.81676927205051,
1,1,1,0,0,321,212,3321,2,0,2,0,0,2,2,2,,,,,,,,,,,,,65.36713940000118,66.3680645000004,66.3680645000004,71.17208500000015,71.17208500000015,None,67.36877916000012,70.18781740000122,"['num_3', 'num_2', 'num_1']","[0.5268668000007892, 1.110974500001248, 1.7029743000002782]",71.17208500000015,None,,,,,,,2,001,2022_May_11_1925,expDesign_,2021.2.3,59.81676927205051,
0,1,1,1,1,312,131,3121,2,0,2,0,0,3,3,3,,,,,,,,,,,,,80.17918090000057,81.1798816999999,81.1798816999999,85.98376330000065,85.96737050000047,None,82.18019215999956,85.0000398000011,"['num_3', 'num_1', 'num_2']","[0.6358412999998109, 1.2038869000007253, 1.8997581000003265]",85.96737050000047,None,,,,,,,2,001,2022_May_11_1925,expDesign_,2021.2.3,59.81676927205051,
1,0,0,0,0,213,131,2131,2,0,2,0,0,4,4,4,,,,,,,,,,,,,94.97442820000106,95.97515039999962,95.97515039999962,100.77898730000015,100.77898730000015,None,96.9760406600013,None,"['num_2', 'num_1', 'num_3']","[0.9118326000007073, 1.4240258000008907, 2.2001768999998603]",100.77898730000015,None,,,,,,,2,001,2022_May_11_1925,expDesign_,2021.2.3,59.81676927205051,
1,0,0,1,0,323,232,1333,2,0,2,0,0,5,5,5,,,,,,,,,,,,,109.76955520000047,110.77040359999955,110.77040359999955,115.57429220000085,115.57429220000085,None,111.77112715999974,None,"['num_3', 'num_2', 'num_3']","[0.5647935999986657, 1.3886499000000185, 2.0125609999995504]",115.57429220000085,None,,,,,,,2,001,2022_May_11_1925,expDesign_,2021.2.3,59.81676927205051,
1,0,1,1,1,123,231,2132,2,0,2,0,0,6,6,6,,,,,,,,,,,,,124.58179560000099,125.58264960000088,125.58264960000088,130.38618160000078,130.38618160000078,None,126.58303416000089,None,"['num_1', 'num_2', 'num_3']","[1.7047658000010415, 2.1767032999996445, 2.6245627000007516]",130.38618160000078,None,,,,,,,2,001,2022_May_11_1925,expDesign_,2021.2.3,59.81676927205051,
0,0,1,0,1,213,132,1333,2,0,2,0,0,7,7,7,,,,,,,,,,,,,139.37685430000056,140.3771968000001,140.3771968000001,145.18080630000077,145.16446480000013,None,141.36271106000058,None,"['num_2', 'num_1', 'num_3']","[0.8703748999996606, 1.6543978000008792, 2.6224562999996124]",145.16446480000013,None,,,,,,,2,001,2022_May_11_1925,expDesign_,2021.2.3,59.81676927205051,
1,0,0,1,1,132,323,3133,2,0,2,0,0,8,8,8,,,,,,,,,,,,,154.17181019999953,155.17262760000085,155.15588089999983,159.959847600001,159.959847600001,None,156.15662326000128,158.9759879000012,"['num_1', 'num_3', 'num_2']","[0.5711682000001019, 1.2430206999997608, 2.1232541000008496]",159.959847600001,None,,,,,,,2,001,2022_May_11_1925,expDesign_,2021.2.3,59.81676927205051,
1,1,1,1,1,231,312,1313,2,0,2,0,0,9,9,9,,,,,,,,,,,,,168.9668782000008,169.96818340000027,169.96818340000027,174.7715903999997,174.7715903999997,None,170.96876436000056,173.78790450000088,"['num_2', 'num_3', 'num_1']","[0.8393333000003622, 1.6072791000005964, 2.5910858000006556]",174.7715903999997,None,,,,,,,2,001,2022_May_11_1925,expDesign_,2021.2.3,59.81676927205051,
1,1,0,1,0,213,132,2233,2,0,2,0,0,10,10,10,,,,,,,,,,,,,183.77903920000062,184.77985400000034,184.77985400000034,189.58386439999958,189.58386439999958,None,185.78054235999988,188.60142980000091,"['num_2', 'num_1', 'num_3']","[0.7151360000007116, 1.7068416999991314, 2.507109300000593]",189.58386439999958,None,,,,,,,2,001,2022_May_11_1925,expDesign_,2021.2.3,59.81676927205051,
0,0,0,0,1,313,131,1131,2,0,2,0,0,11,11,11,,,,,,,,,,,,,198.57431309999993,199.57458320000114,199.57458320000114,204.37864199999967,204.36204250000083,None,200.57567126000103,None,"['num_3', 'num_1', 'num_3']","[1.169152499998745, 2.0489796999991086, 2.8889825999995082]",204.36204250000083,None,,,,,,,2,001,2022_May_11_1925,expDesign_,2021.2.3,59.81676927205051,
1,0,0,0,1,231,312,3122,2,0,2,0,0,12,12,12,,,,,,,,,,,,,213.3693733,214.37062119999973,214.37062119999973,219.17392050000126,219.17392050000126,None,215.37095746000122,None,"['num_2', 'num_3', 'num_1']","[0.6528766000010364, 1.3009727000007842, 1.9972754000009445]",219.17392050000126,None,,,,,,,2,001,2022_May_11_1925,expDesign_,2021.2.3,59.81676927205051,
0,1,1,0,1,321,232,1122,2,0,2,0,0,13,13,13,,,,,,,,,,,,,228.18087550000018,229.1820617000012,229.1820617000012,233.9863709000001,233.9863709000001,None,230.1827146600004,233.0016269000007,"['num_1', 'num_2', 'num_1']","[1.1444490000012593, 1.8963511000001745, 2.648653500000364]",233.9863709000001,None,,,,,,,2,001,2022_May_11_1925,expDesign_,2021.2.3,59.81676927205051,
1,0,1,0,1,231,312,1312,2,0,2,0,0,14,14,14,,,,,,,,,,,,,242.97620710000047,243.9771933000011,243.9771933000011,248.78088779999962,248.78088779999962,None,244.97801586000023,247.79765430000043,"['num_2', 'num_3', 'num_1']","[0.6543025999999372, 1.8139759000005142, 2.5501507999997557]",248.78088779999962,None,,,,,,,2,001,2022_May_11_1925,expDesign_,2021.2.3,59.81676927205051,
1,1,0,1,1,312,233,2122,2,0,2,0,0,15,15,15,,,,,,,,,,,,,257.7888961999997,258.78908840000076,258.7725011000002,263.5760105999998,263.5760105999998,None,259.7733354600001,None,"['num_2', 'num_1', 'num_2']","[1.5151019999993878, 2.0988466999988304, 2.730939999999464]",263.5760105999998,None,,,,,,,2,001,2022_May_11_1925,expDesign_,2021.2.3,59.81676927205051,
1,0,1,0,0,233,121,3231,2,0,2,0,0,16,16,16,,,,,,,,,,,,,272.5839408000011,273.5842571000012,273.56767820000096,278.37134499999956,278.37134499999956,None,274.5688722600004,None,"['num_2', 'num_3', 'num_2']","[0.8074873999994452, 1.4555276999999478, 2.0394852999997966]",278.37134499999956,None,,,,,,,2,001,2022_May_11_1925,expDesign_,2021.2.3,59.81676927205051,
0,1,0,0,1,323,232,3211,2,0,2,0,0,17,17,17,,,,,,,,,,,,,287.3959625000007,288.3965844000013,288.3792376000001,293.18365410000115,293.18365410000115,None,289.38085036000086,None,"['num_3', 'num_2', 'num_3']","[0.5472213000011834, 1.1151558000001387, 1.6830293000002712]",293.18365410000115,None,,,,,,,2,001,2022_May_11_1925,expDesign_,2021.2.3,59.81676927205051,
0,0,1,1,0,232,313,2132,2,0,2,0,0,18,18,18,,,,,,,,,,,,,302.1911789000005,303.19149800000014,303.1748361000009,307.9786604000001,307.96195389999957,None,304.1752979600002,306.9946455999998,"['num_2', 'num_3', 'num_2']","[1.1929044999997132, 1.8969725999995717, 2.5692595000000438]",307.96195389999957,None,,,,,,,2,001,2022_May_11_1925,expDesign_,2021.2.3,59.81676927205051,
0,1,0,0,0,312,123,1311,2,0,2,0,0,19,19,19,,,,,,,,,,,,,316.9859436000006,317.9866194999995,317.96983250000085,322.77398390000053,322.77398390000053,None,318.9705754599996,None,"['num_3', 'num_1', 'num_2']","[0.980757100000119, 1.7568694000001415, 2.3888105000005453]",322.77398390000053,None,,,,,,,2,001,2022_May_11_1925,expDesign_,2021.2.3,59.81676927205051,
0,1,0,1,1,212,123,1133,2,0,2,0,0,20,20,20,,,,,,,,,,,,,331.7811091000003,332.78175680000095,332.78175680000095,337.585729800001,337.585729800001,None,333.78260465999995,336.60157120000076,"['num_2', 'num_1', 'num_2']","[0.8653395000001183, 1.737342800000988, 2.6011695000015607]",337.585729800001,None,,,,,,,2,001,2022_May_11_1925,expDesign_,2021.2.3,59.81676927205051,
0,1,0,1,0,123,231,2123,2,0,2,0,0,21,21,21,,,,,,,,,,,,,346.57595690000016,347.5771034999998,347.5771034999998,352.3810348999996,352.3810348999996,None,348.57763326000133,None,"['num_1', 'num_2', 'num_3']","[1.2379214000011416, 1.8777165999999852, 2.573648499999763]",352.3810348999996,None,,,,,,,2,001,2022_May_11_1925,expDesign_,2021.2.3,59.81676927205051,
0,0,0,1,0,313,232,2311,2,0,2,0,0,22,22,22,,,,,,,,,,,,,361.38797820000036,362.3889126000013,362.3724603999999,367.1765286000009,367.1765286000009,None,363.37282345999995,None,"['num_1', 'num_2', 'num_3']","[1.6262157000001025, 2.018582400000014, 2.753945799999201]",367.1765286000009,None,,,,,,,2,001,2022_May_11_1925,expDesign_,2021.2.3,59.81676927205051,
0,0,1,1,1,232,323,2122,2,0,2,0,0,23,23,23,,,,,,,,,,,,,376.16671940000015,377.1674772999995,377.1674772999995,381.9710283000004,381.9546568000005,None,378.16846466000027,None,"['num_2', 'num_3', 'num_2']","[0.7038609000010183, 1.2559888000014325, 1.8481136000009428]",381.9546568000005,None,,,,,,,2,001,2022_May_11_1925,expDesign_,2021.2.3,59.81676927205051,
0,1,1,1,0,123,312,3332,2,0,2,0,0,24,24,24,,,,,,,,,,,,,390.9783215000007,391.9790415000007,391.96258599999965,396.7663441000004,396.7663441000004,389.97904970000127,392.96347926000055,395.78242280000086,"['num_3', 'num_2', 'num_3']","[0.4202019999993354, 1.1163601000007475, 1.8925595000000612]",396.7663441000004,389.97904970000127,,,,,,,2,001,2022_May_11_1925,expDesign_,2021.2.3,59.81676927205051,
0,0,0,0,0,232,323,1133,2,0,2,0,0,25,25,25,,,,,,,,,,,,,405.79057400000056,406.790971800001,406.7744335999996,411.57832360000066,411.57832360000066,None,407.77517736000084,410.59431399999994,"['num_2', 'num_3', 'num_2']","[0.936637900000278, 1.592534400000659, 2.3281523999994533]",411.57832360000066,None,,,,,,,2,001,2022_May_11_1925,expDesign_,2021.2.3,59.81676927205051,
1,1,0,0,1,233,311,2321,2,0,2,0,0,26,26,26,,,,,,,,,,,,,420.56873989999985,421.56970569999976,421.56970569999976,426.373545800001,426.373545800001,None,422.5703939600004,None,"['num_2', 'num_3', 'num_3']","[0.837148900000102, 1.548801299999468, 2.1812743000009505]",426.373545800001,None,,,,,,,2,001,2022_May_11_1925,expDesign_,2021.2.3,59.81676927205051,
1,0,1,1,0,131,212,3311,2,0,2,0,0,27,27,27,,,,,,,,,,,,,435.3979376999996,436.3985128000004,436.38191949999964,441.18551020000086,441.18551020000086,None,437.3823556599997,None,"['num_1', 'num_3', 'num_1']","[0.6652947000002314, 1.2972678000005544, 1.8971830000009504]",441.18551020000086,None,,,,,,,2,001,2022_May_11_1925,expDesign_,2021.2.3,59.81676927205051,
1,1,0,0,0,131,313,1232,2,0,2,0,0,28,28,28,,,,,,,,,,,,,450.1930855999999,451.1936618,451.1769724000005,455.9804614000004,455.9804614000004,None,452.17798396,None,"['num_1', 'num_3', 'num_1']","[1.5898890000007668, 2.197961800000485, 2.8305168000006233]",455.9804614000004,None,,,,,,,2,001,2022_May_11_1925,expDesign_,2021.2.3,59.81676927205051,
0,0,1,0,0,213,332,1122,2,0,2,0,0,29,29,29,,,,,,,,,,,,,464.97128560000056,465.9720218000002,465.9553358000012,470.7591530999998,470.7591530999998,None,466.9564296599998,None,"['num_2', 'num_1', 'num_3']","[1.0674722000003385, 1.6352673000001232, 2.2191492000001745]",470.7591530999998,None,,,,,,,2,001,2022_May_11_1925,expDesign_,2021.2.3,59.81676927205051,
0,1,1,0,0,323,231,2322,2,0,2,0,0,30,30,30,,,,,,,,,,,,,479.7831623000002,480.78406600000017,480.767063700001,485.5711523000009,485.5711523000009,None,481.76775646000135,None,"['num_2', 'num_2', 'num_3']","[1.4794270000002143, 2.095458100000542, 2.6955443999995623]",485.5711523000009,None,,,,,,,2,001,2022_May_11_1925,expDesign_,2021.2.3,59.81676927205051,
1,1,1,1,0,212,121,1313,2,0,2,0,0,31,31,31,,,,,,,,,,,,,494.5786824000006,495.57976810000036,495.57976810000036,500.38308660000075,500.38308660000075,None,496.57996156000047,499.39968670000053,"['num_2', 'num_1', 'num_2']","[0.9234821000009106, 1.9634282000006351, 2.6283149999999296]",500.38308660000075,None,,,,,,,2,001,2022_May_11_1925,expDesign_,2021.2.3,59.81676927205051,
0,0,1,0,0,132,213,3331,3,0,3,0,0,0,0,0,,,,,,,555.1268973000006,None,space,1.7076393999996071,555.1268973000006,None,557.8791877000003,558.8800967999996,558.8633783000005,563.6668227999999,563.6668227999999,None,559.8643342600004,None,"['num_1', 'num_3', 'num_2']","[0.647952900000746, 1.1037377000011475, 1.5675871000003099]",563.6668227999999,None,508.3904158000005,None,space,36.71618470000067,508.3904158000005,None,2,001,2022_May_11_1925,expDesign_,2021.2.3,59.81676927205051,
0,0,0,0,0,123,232,3323,3,0,3,0,0,1,1,1,,,,,,,,,,,,,572.6748134000009,573.6753193000004,573.6753193000004,578.4789658999998,578.4789658999998,None,574.675518560001,None,"['num_1', 'num_2', 'num_3']","[0.5316631000005145, 0.9634291000002122, 1.3477636000006896]",578.4789658999998,None,,,,,,,2,001,2022_May_11_1925,expDesign_,2021.2.3,59.81676927205051,
1,0,1,1,1,321,212,1311,3,0,3,0,0,2,2,2,,,,,,,,,,,,,587.4699213000004,588.470064000001,588.470064000001,593.2739570000012,593.2739570000012,None,589.4713258600001,None,"['num_3', 'num_2', 'num_1']","[0.928581000000122, 1.736493899999914, 2.2885384999990492]",593.2739570000012,None,,,,,,,2,001,2022_May_11_1925,expDesign_,2021.2.3,59.81676927205051,
1,0,0,1,0,313,132,3122,3,0,3,0,0,3,3,3,,,,,,,,,,,,,602.2811397000005,603.2820810000012,603.2820810000012,608.0862472999997,608.0862472999997,None,604.2834297599999,None,"['num_3', 'num_1', 'num_3']","[2.500452000000223, 3.4124789999987115, 4.132104399999662]",608.0862472999997,None,,,,,,,2,001,2022_May_11_1925,expDesign_,2021.2.3,59.81676927205051,
0,1,0,0,0,121,213,2211,3,0,3,0,0,4,4,4,,,,,,,,,,,,,617.0940243000005,618.0942061000005,618.0775286999997,622.8812448000008,622.8812448000008,None,619.0782560599997,621.8977542000011,"['num_1', 'num_2', 'num_1']","[0.6571555999998964, 1.153223600000274, 1.6969960000005813]",622.8812448000008,None,,,,,,,2,001,2022_May_11_1925,expDesign_,2021.2.3,59.81676927205051,
0,0,0,0,1,323,212,3112,3,0,3,0,0,5,5,5,,,,,,,,,,,,,631.8894233999999,632.8890986000006,632.8725666999999,637.6766435999998,637.6766435999998,None,633.8728177600002,None,"['num_3', 'num_2', 'num_3']","[0.7894799999994575, 1.4779201000001194, 2.189441099999385]",637.6766435999998,None,,,,,,,2,001,2022_May_11_1925,expDesign_,2021.2.3,59.81676927205051,
1,0,0,0,0,321,132,1311,3,0,3,0,0,6,6,6,,,,,,,,,,,,,646.6839204000007,647.6844203,647.6844203,652.4884675000012,652.4884675000012,None,648.6854398600004,None,"['num_3', 'num_2', 'num_1']","[1.0580119000005652, 1.7858478000016476, 2.402168000000529]",652.4884675000012,None,,,,,,,2,001,2022_May_11_1925,expDesign_,2021.2.3,59.81676927205051,
0,0,1,0,1,221,133,3221,3,0,3,0,0,7,7,7,,,,,,,,,,,,,661.4790618999996,662.479495900001,662.479495900001,667.2834123000011,667.2674089000011,None,663.4803702599999,None,"['num_2', 'num_2', 'num_1']","[1.3429880000003322, 1.7431657000015548, 4.583198399999674]",667.2674089000011,None,,,,,,,2,001,2022_May_11_1925,expDesign_,2021.2.3,59.81676927205051,
1,1,1,1,1,123,312,1322,3,0,3,0,0,8,8,8,,,,,,,,,,,,,676.2740936999999,677.2750714000013,677.2750714000013,682.0787652000017,682.0787652000017,None,678.2757408600006,681.0947395000021,"['num_1', 'num_2', 'num_3']","[0.7556738999992376, 1.20359439999811, 1.7557100000012724]",682.0787652000017,None,,,,,,,2,001,2022_May_11_1925,expDesign_,2021.2.3,59.81676927205051,
1,1,0,0,0,331,122,2111,3,0,3,0,0,9,9,9,,,,,,,,,,,,,691.0694327000001,692.0699480000021,692.0699480000021,696.8743823999994,696.8743823999994,None,693.0709264600006,None,"['num_3', 'num_3', 'num_1']","[0.5600320999983524, 1.0718754999979865, 1.712217199998122]",696.8743823999994,None,,,,,,,2,001,2022_May_11_1925,expDesign_,2021.2.3,59.81676927205051,
0,1,1,1,1,131,213,3122,3,0,3,0,0,10,10,10,,,,,,,,,,,,,705.8811783000001,706.8818938999993,706.8818938999993,711.6860453999998,711.6860453999998,None,707.882859060002,None,"['num_3', 'num_1', 'num_1']","[1.1804421999986516, 1.8843319000006886, 2.4205078999984835]",711.6860453999998,None,,,,,,,2,001,2022_May_11_1925,expDesign_,2021.2.3,59.81676927205051,
0,1,0,0,1,122,231,2133,3,0,3,0,0,11,11,11,,,,,,,,,,,,,720.6765457999991,721.6773792000004,721.6773792000004,726.4805247000022,726.4805247000022,None,722.6786237599987,725.4975136000012,"['num_1', 'num_2', 'num_2']","[1.5138385999998718, 2.281964699999662, 3.0419423000021197]",726.4805247000022,None,,,,,,,2,001,2022_May_11_1925,expDesign_,2021.2.3,59.81676927205051,
0,1,0,1,1,223,112,1121,3,0,3,0,0,12,12,12,,,,,,,,,,,,,735.4717127000022,736.4722272000017,736.4722272000017,741.2763658999993,741.2763658999993,None,737.4732297600018,None,"['num_2', 'num_2', 'num_3']","[0.8540451000008034, 1.1983656000011251, 1.766205899999477]",741.2763658999993,None,,,,,,,2,001,2022_May_11_1925,expDesign_,2021.2.3,59.81676927205051,
1,0,0,0,1,123,212,2221,3,0,3,0,0,13,13,13,,,,,,,,,,,,,750.3004382999989,751.3008748000011,751.2844915000005,756.0881707999997,756.0881707999997,None,752.2851533600002,755.1039804000011,"['num_1', 'num_2', 'num_3']","[0.41018590000021504, 0.9782664000013028, 1.6498735999994096]",756.0881707999997,None,,,,,,,2,001,2022_May_11_1925,expDesign_,2021.2.3,59.81676927205051,
0,1,1,0,0,312,131,2333,3,0,3,0,0,14,14,14,,,,,,,,,,,,,765.0958579000016,766.0960056999993,766.0792218000006,770.8834071000001,770.8834071000001,None,767.080715759999,None,"['num_3', 'num_1', 'num_2']","[1.270932499999617, 1.910752700001467, 2.550709300001472]",770.8834071000001,None,,,,,,,2,001,2022_May_11_1925,expDesign_,2021.2.3,59.81676927205051,
0,1,1,1,0,131,323,2231,3,0,3,0,0,15,15,15,,,,,,,,,,,,,779.8742767999993,780.8750401000016,780.8750401000016,785.678510300002,785.678510300002,None,781.8754458600012,784.6952172000001,"['num_1', 'num_3', 'num_1']","[0.7878597999988415, 1.4199826000003668, 2.043798599999718]",785.678510300002,None,,,,,,,2,001,2022_May_11_1925,expDesign_,2021.2.3,59.81676927205051,
1,0,1,0,0,121,313,2212,3,0,3,0,0,16,16,16,,,,,,,,,,,,,794.6690887999994,795.6700507000005,795.6700507000005,800.4738402999992,800.4738402999992,None,796.6707729600017,None,"['num_1', 'num_2', 'num_1']","[0.9044900000008056, 1.7043878000004042, 2.4564141999981075]",800.4738402999992,None,,,,,,,2,001,2022_May_11_1925,expDesign_,2021.2.3,59.81676927205051,
0,0,1,1,1,311,233,2113,3,0,3,0,0,17,17,17,,,,,,,,,,,,,809.4810937999991,810.4819630000002,810.4819630000002,815.2859350999988,815.2859350999988,None,811.483008660001,None,"['num_3', 'num_1', 'num_1']","[0.9483899000006204, 1.5960259999992559, 2.2204425999989326]",815.2859350999988,None,,,,,,,2,001,2022_May_11_1925,expDesign_,2021.2.3,59.81676927205051,
0,0,0,1,0,313,121,3213,3,0,3,0,0,18,18,18,,,,,,,,,,,,,824.2761224000005,825.2773342000019,825.2773342000019,830.0810647999988,830.0810647999988,None,826.2782368600016,None,"['num_3', 'num_1', 'num_3']","[1.3212562999979127, 1.9771459999974468, 2.521261699999741]",830.0810647999988,None,,,,,,,2,001,2022_May_11_1925,expDesign_,2021.2.3,59.81676927205051,
1,1,1,1,0,131,312,2321,3,0,3,0,0,19,19,19,,,,,,,,,,,,,839.0884843000003,840.0887940000011,840.0724835000019,844.8765607000005,844.8765607000005,None,841.0731390600009,843.8922426000008,"['num_3', 'num_1', 'num_1']","[0.5734540000012203, 1.3098863000013807, 2.0695320000013453]",844.8765607000005,None,,,,,,,2,001,2022_May_11_1925,expDesign_,2021.2.3,59.81676927205051,
1,1,1,0,0,132,321,3121,3,0,3,0,0,20,20,20,,,,,,,,,,,,,853.8834931000001,854.884164000001,854.884164000001,859.6882745000021,859.6882745000021,None,855.884723660001,858.7041234000008,"['num_1', 'num_3', 'num_2']","[0.6977498999985983, 1.1540795000000799, 1.6421768999971391]",859.6882745000021,None,,,,,,,2,001,2022_May_11_1925,expDesign_,2021.2.3,59.81676927205051,
1,1,0,0,1,321,213,2331,3,0,3,0,0,21,21,21,,,,,,,,,,,,,868.678346900002,869.6794356000009,869.6794356000009,874.4829559000009,874.4829559000009,None,870.6801898600021,None,"['num_3', 'num_2', 'num_1']","[1.8874465000008058, 2.671053699999902, 3.44734569999855]",874.4829559000009,None,,,,,,,2,001,2022_May_11_1925,expDesign_,2021.2.3,59.81676927205051,
1,1,0,1,1,113,232,2121,3,0,3,0,0,22,22,22,,,,,,,,,,,,,883.4740666000016,884.4746331000006,884.4746331000006,889.2786213000018,889.2786213000018,None,885.4750351600011,888.2945464999993,"['num_1', 'num_1', 'num_3']","[1.8278270999981032, 2.3079995999978564, 3.043947299996944]",889.2786213000018,None,,,,,,,2,001,2022_May_11_1925,expDesign_,2021.2.3,59.81676927205051,
0,0,1,1,0,131,313,1231,3,0,3,0,0,23,23,23,,,,,,,,,,,,,898.2859377000004,899.2867868000012,899.2696554000013,904.0738855,904.0738855,None,900.2705208600015,None,"['num_1', 'num_3', 'num_1']","[0.9442335000021558, 1.8485439000032784, 2.6403091000029235]",904.0738855,None,,,,,,,2,001,2022_May_11_1925,expDesign_,2021.2.3,59.81676927205051,
0,1,0,1,0,121,213,2221,3,0,3,0,0,24,24,24,,,,,,,,,,,,,913.0983643999989,914.098418399999,914.0819294000012,918.8857718000017,918.8857718000017,None,915.0824689600009,917.9010297000004,"['num_1', 'num_2', 'num_1']","[0.6686408000023221, 1.2605265000020154, 1.852394200002891]",918.8857718000017,None,,,,,,,2,001,2022_May_11_1925,expDesign_,2021.2.3,59.81676927205051,
0,0,0,1,1,231,112,1232,3,0,3,0,0,25,25,25,,,,,,,,,,,,,927.9096879000008,928.9105039000005,928.8935046999995,933.6976302000021,933.6807282999998,None,929.8946403600017,932.7128073000003,"['num_1', 'num_1', 'num_2']","[0.9613487000024179, 1.3211403000022983, 2.32142450000174]",933.6807282999998,None,,,,,,,2,001,2022_May_11_1925,expDesign_,2021.2.3,59.81676927205051,
1,0,1,0,1,313,231,1122,3,0,3,0,0,26,26,26,,,,,,,,,,,,,942.6713099999997,943.6719047999995,943.6719047999995,948.4760203999995,948.4760203999995,None,944.6730596599988,947.4923841,"['num_3', 'num_1', 'num_3']","[1.046152599999914, 1.7020620000002964, 2.3259906000021147]",948.4760203999995,None,,,,,,,2,001,2022_May_11_1925,expDesign_,2021.2.3,59.81676927205051,
0,1,1,0,1,121,232,1131,3,0,3,0,0,27,27,27,,,,,,,,,,,,,957.499989599999,958.5006221999993,958.4842680999991,963.2879034000016,963.2879034000016,None,959.48470556,962.3043836000015,"['num_1', 'num_2', 'num_1']","[0.7220626000016637, 1.258214900000894, 1.8020561000012094]",963.2879034000016,None,,,,,,,2,001,2022_May_11_1925,expDesign_,2021.2.3,59.81676927205051,
1,1,1,0,1,321,213,3323,3,0,3,0,0,28,28,28,,,,,,,,,,,,,972.2783032999996,973.2793384999986,973.2793384999986,978.0832165000011,978.0832165000011,None,974.2799396600018,None,"['num_3', 'num_2', 'num_3']","[1.9831673000007868, 2.5348349000014423, 3.046831600000587]",978.0832165000011,None,,,,,,,2,001,2022_May_11_1925,expDesign_,2021.2.3,59.81676927205051,
1,0,0,1,1,123,311,1212,3,0,3,0,0,29,29,29,,,,,,,,,,,,,987.0733768000009,988.0744725999994,988.0744725999994,992.8780893000021,992.8780893000021,None,989.0752656600013,None,"['num_1', 'num_2', 'num_3']","[0.46029210000051535, 0.9319799999975658, 1.4758714999989024]",992.8780893000021,None,,,,,,,2,001,2022_May_11_1925,expDesign_,2021.2.3,59.81676927205051,
1,0,1,1,0,131,312,1232,3,0,3,0,0,30,30,30,,,,,,,,,,,,,1001.8689026000011,1002.8697936000008,1002.8697936000008,1007.6733269999986,1007.6733269999986,None,1003.8704160599988,1006.6890550000007,"['num_1', 'num_3', 'num_1']","[0.9530392000015127, 1.5927173000018229, 2.2807735999995202]",1007.6733269999986,None,,,,,,,2,001,2022_May_11_1925,expDesign_,2021.2.3,59.81676927205051,
1,1,0,1,0,213,332,2322,3,0,3,0,0,31,31,31,,,,,,,,,,,,,1016.6976661999997,1017.6978852000011,1017.6814727000001,1022.4854544999998,1022.4854544999998,None,1018.6822488600006,1021.5016301000014,"['num_2', 'num_1', 'num_3']","[0.8927747999987332, 1.468811499998992, 2.22859569999855]",1022.4854544999998,None,,,,,,,2,001,2022_May_11_1925,expDesign_,2021.2.3,59.81676927205051,
,,,,,,,,,,,,,,,,,,,,,,,,,,,,,,,,,,,,,,,,1030.492793200001,None,space,201.50923390000025,1030.492793200001,None,,,,,,,
