iStimSide,iTargSide,iSideFirst,iStim,iGen,sylTarg,sylDist,sylCent,sylFlank,sylFlankFirst,block.thisRepN,block.thisTrialN,block.thisN,block.thisIndex,trials.thisRepN,trials.thisTrialN,trials.thisN,trials.thisIndex,expStartText.started,expStartText.stopped,expStartKey.keys,expStartKey.rt,expStartKey.started,expStartKey.stopped,blockStartText.started,blockStartText.stopped,blockStartKey.keys,blockStartKey.rt,blockStartKey.started,blockStartKey.stopped,visCueText.started,visCueText.stopped,fixDot.started,fixDot.stopped,fixDotBlue.started,fixDotBlue.stopped,soundStim.started,soundStim.stopped,trialKey.keys,trialKey.rt,trialKey.started,trialKey.stopped,blockEndText.started,blockEndText.stopped,blockEndKey.keys,blockEndKey.rt,blockEndKey.started,blockEndKey.stopped,expEndText.started,expEndText.stopped,expEndKey.keys,expEndKey.rt,expEndKey.started,expEndKey.stopped,participant,session,date,expName,psychopyVersion,frameRate,
,,,,,,,,,,,,,,,,,,24.788055499986513,None,space,5.307037900027353,25.73881569999503,None,,,,,,,,,,,,,,,,,,,,,,,,,,,,,,,3,001,2022_May_21_1932,expDesign_,2021.2.3,None,
1,1,0,1,0,213,121,1123,211,0,0,0,0,0,0,0,0,0,,,,,,,41.08292509999592,None,space,6.730739899998298,41.08292509999592,None,48.8732478999882,49.890008699992904,49.87469609998516,54.67892700000084,54.66155109999818,None,50.85873236664726,None,"['num_2', 'num_3']","[0.6640991999884136, 1.3758851999882609]",54.66155109999818,None,,,,,,,,,,,,,3,001,2022_May_21_1932,expDesign_,2021.2.3,None,
1,0,1,0,0,131,313,2331,313,1,0,0,0,0,0,1,1,1,,,,,,,,,,,,,63.667804899974726,64.66844999999739,64.65302050000173,69.45726879997528,69.4390538999869,None,65.65310116665593,68.47405039999285,"['num_1', 'num_3', 'num_2']","[1.7979655000090133, 2.9899090999970213, 3.4543653999862727]",69.4390538999869,None,,,,,,,,,,,,,3,001,2022_May_21_1932,expDesign_,2021.2.3,None,
1,0,0,1,0,232,313,3132,132,1,0,0,0,0,0,2,2,2,,,,,,,,,,,,,78.44767649998539,79.44853119997424,79.44853119997424,84.25215539999772,84.25215539999772,77.46347779998905,80.44984756666624,None,"['num_3', 'num_2', 'num_3']","[1.4488385999866296, 2.1131773999950383, 2.969242299994221]",84.25215539999772,77.46347779998905,,,,,,,,,,,,,3,001,2022_May_21_1932,expDesign_,2021.2.3,None,
0,1,0,1,0,123,231,3131,122,0,0,0,0,0,0,3,3,3,,,,,,,,,,,,,93.26053369999863,94.27586249998421,94.24259559999336,99.0468048999901,99.0468048999901,None,95.24457776666192,98.06224829997518,"['num_1', 'num_1', 'num_3']","[0.9745221999764908, 1.862264099996537, 2.5987366999906953]",99.0468048999901,None,,,,,,,,,,,,,3,001,2022_May_21_1932,expDesign_,2021.2.3,None,
1,0,1,1,0,313,132,2231,112,1,0,0,0,0,0,4,4,4,,,,,,,,,,,,,108.07060789997922,109.0711103999929,109.05588999998872,113.8598124999844,113.8598124999844,None,110.05529826664521,None,"['num_1', 'num_2', 'num_1']","[0.90548950000084, 1.7695520000124816, 2.433746599999722]",113.8598124999844,None,,,,,,,,,,,,,3,001,2022_May_21_1932,expDesign_,2021.2.3,None,
0,1,1,1,0,213,121,3123,231,1,0,0,0,0,0,5,5,5,,,,,,,,,,,,,122.86699699997553,123.88294689997565,123.84932849998586,128.65467309998348,128.63707830000203,None,124.85184486664754,127.66927489999216,"['num_3', 'num_2', 'num_2']","[0.84010390000185, 1.4962968000036199, 2.272512000025017]",128.63707830000203,None,,,,,,,,,,,,,3,001,2022_May_21_1932,expDesign_,2021.2.3,None,
0,1,0,0,0,223,132,1133,112,0,0,0,0,0,0,6,6,6,,,,,,,,,,,,,137.6455474999966,138.6445764999953,138.6445764999953,143.4486497999751,143.4486497999751,136.66084119997686,139.64556256664608,None,"['num_3', 'num_1', 'num_2']","[1.068544900015695, 2.0365743000002112, 2.6761112000094727]",143.4486497999751,136.66084119997686,,,,,,,,,,,,,3,001,2022_May_21_1932,expDesign_,2021.2.3,None,
1,1,1,0,1,131,323,2123,132,1,0,0,0,0,0,7,7,7,,,,,,,,,,,,,152.45813409998664,153.47345900000073,153.4581157999928,158.2625140999735,158.24522789998446,None,154.45756126664153,None,"['num_1', 'num_2', 'num_1']","[0.9357593000167981, 1.5199872000084724, 2.1438944000110496]",158.24522789998446,None,,,,,,,,,,,,,3,001,2022_May_21_1932,expDesign_,2021.2.3,None,
1,1,1,0,0,121,213,2231,213,0,0,0,0,0,0,8,8,8,,,,,,,,,,,,,167.25250459997915,168.2535007999977,168.2535007999977,173.0572040999832,173.03897939997842,None,169.2372517666411,None,"['num_3', 'num_2', 'num_3']","[0.9020578000054229, 1.3582928999967407, 1.7823820000048727]",173.03897939997842,None,,,,,,,,,,,,,3,001,2022_May_21_1932,expDesign_,2021.2.3,None,
1,0,0,1,1,131,213,1131,311,1,0,0,0,0,0,9,9,9,,,,,,,,,,,,,182.04853799997363,183.04714339997736,183.03252670000074,187.83435679998365,187.83435679998365,None,184.03270236665074,None,"['num_1', 'num_2', 'num_3']","[0.9228085999784525, 1.4031018999812659, 1.795027599990135]",187.83435679998365,None,,,,,,,,,,,,,3,001,2022_May_21_1932,expDesign_,2021.2.3,None,
0,0,1,1,1,321,213,1333,112,0,0,0,0,0,0,10,10,10,,,,,,,,,,,,,196.8428428999905,197.8440738999925,197.8440738999925,202.6474369999778,202.6474369999778,195.85863149998477,198.8432105666473,None,"['num_3', 'num_2', 'num_1']","[0.7416872000030708, 1.1258726000087336, 1.4937104000127874]",202.6474369999778,195.85863149998477,,,,,,,,,,,,,3,001,2022_May_21_1932,expDesign_,2021.2.3,None,
0,1,1,0,1,321,232,2112,233,0,0,0,0,0,0,11,11,11,,,,,,,,,,,,,211.67054319998715,212.67274159999215,212.65411949998816,217.4581147999852,217.4581147999852,None,213.6562207666614,None,"['num_3', 'num_2', 'num_3']","[0.7152971000177786, 1.1550793999922462, 1.5308924000128172]",217.4581147999852,None,,,,,,,,,,,,,3,001,2022_May_21_1932,expDesign_,2021.2.3,None,
0,1,0,0,1,313,121,3312,212,1,0,0,0,0,0,12,12,12,,,,,,,,,,,,,226.4495806999912,227.4498670999892,227.4498670999892,232.2552298999799,232.2552298999799,None,228.450248466663,231.2690155999735,"['num_2', 'num_3', 'num_1']","[0.9017808999924455, 1.5578927999886218, 2.125942099984968]",232.2552298999799,None,,,,,,,,,,,,,3,001,2022_May_21_1932,expDesign_,2021.2.3,None,
0,0,0,0,1,331,123,2213,221,1,0,0,0,0,0,13,13,13,,,,,,,,,,,,,241.2780867999827,242.27962049999041,242.26148960000137,247.06660849999753,247.04854049999267,None,243.26331786666222,None,"['num_1', 'num_1', 'num_3']","[0.8363817999779712, 1.1246678000024986, 1.9007715999905486]",247.04854049999267,None,,,,,,,,,,,,,3,001,2022_May_21_1932,expDesign_,2021.2.3,None,
1,1,0,0,0,131,223,2232,311,1,0,0,0,0,0,14,14,14,,,,,,,,,,,,,256.07411229997524,257.07444419999956,257.0409654999967,261.84558989998186,261.84558989998186,None,258.04057296665655,None,"['num_3', 'num_3', 'num_1']","[0.6314761000103317, 0.9516224999970291, 1.5113291000016034]",261.84558989998186,None,,,,,,,,,,,,,3,001,2022_May_21_1932,expDesign_,2021.2.3,None,
1,1,0,0,1,212,131,1321,112,0,0,0,0,0,0,15,15,15,,,,,,,,,,,,,270.8508012999955,271.85153159999754,271.85153159999754,276.6558114999789,276.6558114999789,None,272.85391466666283,None,"['num_3', 'num_1', 'num_3']","[0.7731728000217117, 1.6852450000005774, 2.389508799999021]",276.6558114999789,None,,,,,,,,,,,,,3,001,2022_May_21_1932,expDesign_,2021.2.3,None,
0,0,0,1,0,123,212,3133,213,0,0,0,0,0,0,16,16,16,,,,,,,,,,,,,285.6813503000012,286.69682309997734,286.66348849999486,291.4677064999996,291.4677064999996,None,287.66598796664425,None,"['num_2', 'num_2', 'num_1']","[0.9853335999941919, 1.3134009999921545, 1.6976205999962986]",291.4677064999996,None,,,,,,,,,,,,,3,001,2022_May_21_1932,expDesign_,2021.2.3,None,
1,1,0,1,1,312,123,3233,112,1,0,0,0,0,0,17,17,17,,,,,,,,,,,,,300.4763679000025,301.4772163000016,301.458896600001,306.2631471999921,306.2631471999921,None,302.4611821666515,305.2786927999987,"['num_2', 'num_3', 'num_1']","[0.6622284000040963, 1.10183820000384, 1.518408099975204]",306.2631471999921,None,,,,,,,,,,,,,3,001,2022_May_21_1932,expDesign_,2021.2.3,None,
0,0,1,0,0,213,132,3231,123,0,0,0,0,0,0,18,18,18,,,,,,,,,,,,,315.27044729999034,316.2708791999903,316.2564895999967,321.0768281999917,321.04309259998263,None,317.2399793666593,320.0570348999754,"['num_3', 'num_1', 'num_1']","[1.8662971000012476, 2.5857635000138544, 2.993891200021608]",321.04309259998263,None,,,,,,,,,,,,,3,001,2022_May_21_1932,expDesign_,2021.2.3,None,
1,0,0,0,0,323,132,1332,121,1,0,0,0,0,0,19,19,19,,,,,,,,,,,,,330.04982119999477,331.04920129998936,331.04920129998936,335.85446039997623,335.85446039997623,None,332.05011476664026,None,"['num_3', 'num_2', 'num_1']","[0.7748538999876473, 1.566481499990914, 2.014991400006693]",335.85446039997623,None,,,,,,,,,,,,,3,001,2022_May_21_1932,expDesign_,2021.2.3,None,
0,0,1,1,0,232,121,1323,322,0,0,0,0,0,0,20,20,20,,,,,,,,,,,,,344.8615224999958,345.8614859999798,345.8614859999798,350.66675619999296,350.66675619999296,None,346.86216596665713,None,"['num_2', 'num_1', 'num_3']","[1.2101568999933079, 1.9378480000013951, 3.5223216000013053]",350.66675619999296,None,,,,,,,,,,,,,3,001,2022_May_21_1932,expDesign_,2021.2.3,None,
0,0,1,0,1,313,231,3231,233,1,0,0,0,0,0,21,21,21,,,,,,,,,,,,,359.6578519999748,360.65665869999793,360.65665869999793,365.4616302999784,365.4616302999784,None,361.6572418666658,364.4764887999918,"['num_3', 'num_1', 'num_2']","[0.5994502000103239, 1.9112916000012774, 2.223240599996643]",365.4616302999784,None,,,,,,,,,,,,,3,001,2022_May_21_1932,expDesign_,2021.2.3,None,
0,1,1,0,0,321,213,3313,331,0,0,0,0,0,0,22,22,22,,,,,,,,,,,,,374.46963599999435,375.46837989997584,375.45336580000003,380.2554777999758,380.24020449997624,None,376.4539002666463,None,"['num_3', 'num_1', 'num_2']","[1.244691600004444, 2.108802900009323, 2.460718900023494]",380.24020449997624,None,,,,,,,,,,,,,3,001,2022_May_21_1932,expDesign_,2021.2.3,None,
0,0,0,0,0,312,233,2121,231,0,0,0,0,0,0,23,23,23,,,,,,,,,,,,,389.2649672999978,390.2634705999808,390.24840459998813,395.0531086999981,395.0531086999981,388.2635013999825,391.2493108666424,394.0679640999879,"['num_3', 'num_1', 'num_3']","[1.167776899994351, 1.6238433999824338, 2.039553899987368]",395.0531086999981,388.2635013999825,,,,,,,,,,,,,3,001,2022_May_21_1932,expDesign_,2021.2.3,None,
1,0,1,0,1,323,132,3323,312,0,0,0,0,0,0,24,24,24,,,,,,,,,,,,,404.0748383999744,405.07555339997634,405.07555339997634,409.880960999988,409.8625860999746,None,406.0779256666467,408.8969846999971,"['num_2', 'num_1', 'num_3']","[0.798660700005712, 1.1348771000048146, 1.6622043000243139]",409.8625860999746,None,,,,,,,,,,,,,3,001,2022_May_21_1932,expDesign_,2021.2.3,None,
0,1,0,1,1,132,321,2132,332,1,0,0,0,0,0,25,25,25,,,,,,,,,,,,,418.8887197999866,419.88740599999437,419.8730519999808,424.6932710999972,424.6598174999817,None,420.87329766666903,None,"['num_2', 'num_2', 'num_1']","[0.6250039000005927, 0.8331045999948401, 1.1932436999923084]",424.6598174999817,None,,,,,,,,,,,,,3,001,2022_May_21_1932,expDesign_,2021.2.3,None,
0,1,1,1,1,233,121,1133,123,0,0,0,0,0,0,26,26,26,,,,,,,,,,,,,433.6485761999793,434.65116689997376,434.65116689997376,439.4545469000004,439.43639329998405,None,435.651788466643,None,"['num_2', 'num_3', 'num_1']","[1.0884831000003032, 1.4566711999941617, 1.880538700002944]",439.43639329998405,None,,,,,,,,,,,,,3,001,2022_May_21_1932,expDesign_,2021.2.3,None,
1,0,1,1,1,312,231,3222,111,1,0,0,0,0,0,27,27,27,,,,,,,,,,,,,448.4606696999981,449.46131719998084,449.445922599989,454.2483608999755,454.2483608999755,447.4603967999865,450.44553766664853,453.26379929998075,"['num_1', 'num_2', 'num_3']","[0.9805438999901526, 1.7248615999997128, 2.692848100006813]",454.2483608999755,447.4603967999865,,,,,,,,,,,,,3,001,2022_May_21_1932,expDesign_,2021.2.3,None,
1,1,1,1,1,123,232,1213,121,0,0,0,0,0,0,28,28,28,,,,,,,,,,,,,463.272788399976,464.2730891999963,464.2575537999801,469.0600216999883,469.0453350000025,None,465.2427319666642,None,"['num_3', 'num_3', 'num_1']","[0.8874142999993637, 1.0874724999885075, 1.5916781999985687]",469.0453350000025,None,,,,,,,,,,,,,3,001,2022_May_21_1932,expDesign_,2021.2.3,None,
1,1,1,1,0,312,131,3131,133,0,0,0,0,0,0,29,29,29,,,,,,,,,,,,,478.067553699977,479.0683988999808,479.0683988999808,483.87340250000125,483.85535919998074,None,480.07063366665193,482.88805339997634,"['num_1', 'num_1', 'num_3']","[2.997531600005459, 3.301422399992589, 3.861727699986659]",483.85535919998074,None,,,,,,,,,,,,,3,001,2022_May_21_1932,expDesign_,2021.2.3,None,
0,0,0,1,1,112,323,1122,323,1,0,0,0,0,0,30,30,30,,,,,,,,,,,,,492.87983059999533,493.8799847999762,493.8644612999924,498.6675823999976,498.6675823999976,None,494.8658774666585,497.68496709998,"['num_2', 'num_1', 'num_2']","[0.8491422000224702, 1.2814968000166118, 2.033207400003448]",498.6675823999976,None,,,,,,,,,,,,,3,001,2022_May_21_1932,expDesign_,2021.2.3,None,
1,0,0,0,1,232,323,3131,331,1,0,0,0,0,0,31,31,31,,,,,,,,,,,,,507.65803689998575,508.6588886999816,508.6588886999816,513.4642991999863,513.4642991999863,None,509.65942146664406,None,"['num_2', 'num_3', 'num_2']","[1.0207201000011992, 1.4123660999757703, 2.068686999991769]",513.4642991999863,None,,,,,,,,,,,,,3,001,2022_May_21_1932,expDesign_,2021.2.3,None,
0,1,1,1,1,121,213,2312,221,0,1,0,1,0,0,0,0,0,,,,,,,630.3755116999964,None,space,12.237299900007201,630.3755116999964,None,643.6696299999894,644.684608999989,644.6514234999777,649.455216399976,649.455216399976,None,645.6536499666438,648.4715835999814,"['num_2', 'num_3', 'num_2']","[1.1732478000049014, 1.9973781000007875, 2.3736994999926537]",649.455216399976,None,521.4701755999995,None,space,98.87069559999509,521.4701755999995,None,,,,,,,3,001,2022_May_21_1932,expDesign_,2021.2.3,None,
1,0,1,1,1,212,321,3232,112,1,1,0,1,0,0,1,1,1,,,,,,,,,,,,,658.4646009999851,659.4798721999978,659.446536399977,664.2504711999791,664.2504711999791,None,660.4488134666501,None,"['num_1', 'num_2', 'num_1']","[0.8662116000195965, 1.3223652000015136, 1.8186084000044502]",664.2504711999791,None,,,,,,,,,,,,,3,001,2022_May_21_1932,expDesign_,2021.2.3,None,
0,0,0,1,0,231,123,3112,233,1,1,0,1,0,0,2,2,2,,,,,,,,,,,,,673.2426945999905,674.2432941999868,674.2432941999868,679.047259599989,679.047259599989,None,675.2425563666659,678.061658999999,"['num_3', 'num_1', 'num_2']","[1.7491499000170734, 2.8211692000040784, 3.069630000012694]",679.047259599989,None,,,,,,,,,,,,,3,001,2022_May_21_1932,expDesign_,2021.2.3,None,
1,1,0,0,1,232,321,2311,221,1,1,0,1,0,0,3,3,3,,,,,,,,,,,,,688.0716020999826,689.0872181000013,689.0534798000008,693.857667299977,693.857667299977,None,690.0564623666617,692.8734488999762,"['num_1', 'num_2', 'num_1']","[1.6669589999946766, 2.5869659000018146, 4.706946199992672]",693.857667299977,None,,,,,,,,,,,,,3,001,2022_May_21_1932,expDesign_,2021.2.3,None,
0,0,1,1,1,212,121,2212,233,0,1,0,1,0,0,4,4,4,,,,,,,,,,,,,702.8500810999831,703.8502681999817,703.8502681999817,708.6546841999807,708.6363159999892,None,704.8498826666657,None,"['num_2', 'num_1', 'num_2']","[1.520115600025747, 2.240111600025557, 2.7765303000051063]",708.6363159999892,None,,,,,,,,,,,,,3,001,2022_May_21_1932,expDesign_,2021.2.3,None,
0,1,0,0,1,223,332,2221,332,1,1,0,1,0,0,5,5,5,,,,,,,,,,,,,717.6616600999841,718.6623012999771,718.6451184999896,723.4493113999779,723.4493113999779,None,719.6470381666479,None,"['num_3', 'num_1', 'num_1']","[1.2671964000037406, 1.8352662000106648, 2.0992771000019275]",723.4493113999779,None,,,,,,,,,,,,,3,001,2022_May_21_1932,expDesign_,2021.2.3,None,
1,1,0,1,1,212,131,3112,131,1,1,0,1,0,0,6,6,6,,,,,,,,,,,,,732.4566532999743,733.457188499975,733.457188499975,738.2617552999873,738.2617552999873,None,734.4569626666528,None,"['num_2', 'num_1', 'num_1']","[0.7591968999768142, 1.2391362999915145, 1.4547564999957103]",738.2617552999873,None,,,,,,,,,,,,,3,001,2022_May_21_1932,expDesign_,2021.2.3,None,
0,1,1,0,0,313,232,3213,312,1,1,0,1,0,0,7,7,7,,,,,,,,,,,,,747.2506248999853,748.2533718999766,748.2533718999766,753.0553411000001,753.0553411000001,None,749.2521048666424,752.0733299999847,"['num_1', 'num_2', 'num_3']","[1.2529758000164293, 1.5251414999947883, 2.093431999994209]",753.0553411000001,None,,,,,,,,,,,,,3,001,2022_May_21_1932,expDesign_,2021.2.3,None,
1,1,1,1,0,213,322,3123,333,1,1,0,1,0,0,8,8,8,,,,,,,,,,,,,762.045165699994,763.0470796999871,763.0470796999871,767.8502084999927,767.8502084999927,None,764.047431966643,None,"['num_2', 'num_3', 'num_1']","[1.0019228999735788, 1.6022375999891665, 2.1783875999972224]",767.8502084999927,None,,,,,,,,,,,,,3,001,2022_May_21_1932,expDesign_,2021.2.3,None,
0,1,1,0,1,123,231,3331,212,0,1,0,1,0,0,9,9,9,,,,,,,,,,,,,776.8243011999875,777.8266744999855,777.8266744999855,782.628854199982,782.628854199982,None,778.8272240666595,None,"['num_3', 'num_2', 'num_1']","[1.0477942999859806, 1.4318672000081278, 1.7196470999915618]",782.628854199982,None,,,,,,,,,,,,,3,001,2022_May_21_1932,expDesign_,2021.2.3,None,
1,0,0,0,0,323,212,1331,233,0,1,0,1,0,0,10,10,10,,,,,,,,,,,,,791.6548460999911,792.6703305999981,792.6368582999858,797.44243559998,797.44243559998,790.6537605999911,793.6393020666476,796.4584641999973,"['num_1', 'num_2', 'num_3']","[2.6023806000011973, 2.8899890999891795, 3.6979292999894824]",797.44243559998,790.6537605999911,,,,,,,,,,,,,3,001,2022_May_21_1932,expDesign_,2021.2.3,None,
0,0,0,1,1,123,232,3331,332,1,1,0,1,0,0,11,11,11,,,,,,,,,,,,,806.4481128999905,807.4486078999762,807.4486078999762,812.2542836999928,812.2542836999928,None,808.4509869666401,811.2703324999893,"['num_1', 'num_3', 'num_2']","[0.7586043999763206, 1.1104253999947105, 1.4866155999770854]",812.2542836999928,None,,,,,,,,,,,,,3,001,2022_May_21_1932,expDesign_,2021.2.3,None,
0,1,0,1,0,133,212,1221,211,0,1,0,1,0,0,12,12,12,,,,,,,,,,,,,821.2452511999873,822.2457384000008,822.2276315999916,827.0311432000017,827.0311432000017,None,823.2298047666593,826.0493276999914,"['num_1', 'num_3', 'num_1']","[0.7011801000044215, 1.1570975999929942, 1.6451982000144199]",827.0311432000017,None,,,,,,,,,,,,,3,001,2022_May_21_1932,expDesign_,2021.2.3,None,
1,1,0,1,0,321,133,1312,133,1,1,0,1,0,0,13,13,13,,,,,,,,,,,,,836.0397990999918,837.0392915999983,837.0392915999983,841.8447595999751,841.8447595999751,835.0554017999966,838.0420283666501,840.8591947999957,"['num_3', 'num_1', 'num_3']","[0.7275096999946982, 1.696001600008458, 2.5915500999835785]",841.8447595999751,835.0554017999966,,,,,,,,,,,,,3,001,2022_May_21_1932,expDesign_,2021.2.3,None,
0,1,1,1,0,233,121,2123,133,0,1,0,1,0,0,14,14,14,,,,,,,,,,,,,850.8517865999893,851.852868099988,851.852868099988,856.6558834000025,856.6558834000025,None,852.851895666656,855.6713386999909,"['num_3', 'num_2', 'num_2']","[0.8768644999945536, 3.0127253999817185, 4.3884917999967]",856.6558834000025,None,,,,,,,,,,,,,3,001,2022_May_21_1932,expDesign_,2021.2.3,None,
1,0,1,0,1,133,212,3112,132,0,1,0,1,0,0,15,15,15,,,,,,,,,,,,,865.6643022999924,866.6794687999936,866.6464190999977,871.4504618999781,871.4504618999781,None,867.6485230666624,870.4678127999941,"['num_3', 'num_2', 'num_3']","[1.1781459000194445, 1.8738962000061292, 3.729637400014326]",871.4504618999781,None,,,,,,,,,,,,,3,001,2022_May_21_1932,expDesign_,2021.2.3,None,
1,1,1,0,1,312,123,3121,231,1,1,0,1,0,0,16,16,16,,,,,,,,,,,,,880.458243000001,881.4598833999771,881.4415802999865,886.2453857999935,886.2453857999935,None,882.443702566645,None,"['num_3', 'num_2', 'num_2']","[2.286874900019029, 3.2228393999976106, 3.6949942000210285]",886.2453857999935,None,,,,,,,,,,,,,3,001,2022_May_21_1932,expDesign_,2021.2.3,None,
1,1,1,0,0,321,213,3123,211,0,1,0,1,0,0,17,17,17,,,,,,,,,,,,,895.2529035999905,896.2551789999998,896.2551789999998,901.0581707999809,901.0581707999809,None,897.2557150666582,None,"['num_3', 'num_3', 'num_2']","[0.9623147000093013, 1.2662066000048071, 2.466260399989551]",901.0581707999809,None,,,,,,,,,,,,,3,001,2022_May_21_1932,expDesign_,2021.2.3,None,
1,0,0,1,0,233,312,2312,231,1,1,0,1,0,0,18,18,18,,,,,,,,,,,,,910.0662784999877,911.0654856999754,911.0508665999805,915.8528185999894,915.8528185999894,None,912.0496674666686,914.8703206999926,"['num_3', 'num_2', 'num_3']","[2.687402800016571, 3.247667600022396, 3.8314224000205286]",915.8528185999894,None,,,,,,,,,,,,,3,001,2022_May_21_1932,expDesign_,2021.2.3,None,
0,0,1,0,0,313,232,2313,213,0,1,0,1,0,0,19,19,19,,,,,,,,,,,,,924.8448272999958,925.8455050999764,925.8455050999764,930.6492985999794,930.6313153999799,None,926.8464888666679,None,"['num_1', 'num_2', 'num_3']","[4.084886900003767, 4.469100799993612, 4.788841600005981]",930.6313153999799,None,,,,,,,,,,,,,3,001,2022_May_21_1932,expDesign_,2021.2.3,None,
0,0,0,0,1,213,122,3331,323,1,1,0,1,0,0,20,20,20,,,,,,,,,,,,,939.638607699977,940.6396684999927,940.6396684999927,945.4433587999956,945.4433587999956,938.6730585999903,941.6400047666432,None,"['num_3', 'num_2', 'num_3']","[0.7689721999922767, 1.152963100001216, 1.505043699988164]",945.4433587999956,938.6730585999903,,,,,,,,,,,,,3,001,2022_May_21_1932,expDesign_,2021.2.3,None,
0,0,1,0,1,323,212,2313,121,0,1,0,1,0,0,21,21,21,,,,,,,,,,,,,954.4520185999863,955.4512829000014,955.4512829000014,960.255006899999,960.255006899999,None,956.4538377666652,None,"['num_2', 'num_1', 'num_2']","[0.6294357000151649, 1.0292862000060268, 1.3174403000157326]",960.255006899999,None,,,,,,,,,,,,,3,001,2022_May_21_1932,expDesign_,2021.2.3,None,
1,0,0,0,1,311,123,1211,312,1,1,0,1,0,0,22,22,22,,,,,,,,,,,,,969.2471153999795,970.2631675000011,970.2480004999961,975.0511979000003,975.0350840999745,None,971.2478040666649,974.0661625999783,"['num_3', 'num_2', 'num_3']","[0.43352900000172667, 1.1453862999915145, 1.6094371000071988]",975.0350840999745,None,,,,,,,,,,,,,3,001,2022_May_21_1932,expDesign_,2021.2.3,None,
1,0,1,1,0,113,232,1331,323,0,1,0,1,0,0,23,23,23,,,,,,,,,,,,,984.0421028999845,985.0415574999934,985.0415574999934,989.8451572999766,989.8451572999766,None,986.0422627666596,None,"['num_2', 'num_3', 'num_1']","[0.9429739999759477, 1.3749646999931429, 1.8628238999808673]",989.8451572999766,None,,,,,,,,,,,,,3,001,2022_May_21_1932,expDesign_,2021.2.3,None,
1,0,1,0,0,123,231,1131,213,0,1,0,1,0,0,24,24,24,,,,,,,,,,,,,998.854185299977,999.8545394999965,999.8545394999965,1004.6587111999979,1004.6587111999979,None,1000.8540151666423,None,"['num_1', 'num_2', 'num_1']","[0.6579487000126392, 1.2019370000052731, 1.9854970000160392]",1004.6587111999979,None,,,,,,,,,,,,,3,001,2022_May_21_1932,expDesign_,2021.2.3,None,
0,1,0,0,0,123,231,1112,131,1,1,0,1,0,0,25,25,25,,,,,,,,,,,,,1013.6666239999759,1014.6666506999754,1014.649025199993,1019.4542119999824,1019.4542119999824,None,1015.6506901666619,None,"['num_2', 'num_2', 'num_2']","[0.20622890000231564, 0.78203649999341, 1.878255799994804]",1019.4542119999824,None,,,,,,,,,,,,,3,001,2022_May_21_1932,expDesign_,2021.2.3,None,
0,0,0,0,0,131,323,2113,211,0,1,0,1,0,0,26,26,26,,,,,,,,,,,,,1028.460411499982,1029.4608046999783,1029.4455593999883,1034.2478075999825,1034.2328282999806,None,1030.4446978666567,None,"['num_2', 'num_1', 'num_3']","[0.8351799999945797, 1.3869182999769691, 1.8513771999860182]",1034.2328282999806,None,,,,,,,,,,,,,3,001,2022_May_21_1932,expDesign_,2021.2.3,None,
1,0,0,1,1,122,213,1222,111,0,1,0,1,0,0,27,27,27,,,,,,,,,,,,,1043.2397505999834,1044.2405870999792,1044.2405870999792,1049.0619782999856,1049.0278266999812,1042.2554150999931,1045.2413735666526,None,"['num_3', 'num_2', 'num_1']","[0.6004740000062156, 1.064359300013166, 1.6003733999968972]",1049.0278266999812,1042.2554150999931,,,,,,,,,,,,,3,001,2022_May_21_1932,expDesign_,2021.2.3,None,
0,0,1,1,0,332,121,1322,222,1,1,0,1,0,0,28,28,28,,,,,,,,,,,,,1058.0351901999966,1059.035553900001,1059.035553900001,1063.8392038999882,1063.8392038999882,1057.0505436999956,1060.0352855666463,1062.8541859999823,"['num_3', 'num_1', 'num_2']","[1.6694949000084307, 2.3649350999912713, 2.589078499993775]",1063.8392038999882,1057.0505436999956,,,,,,,,,,,,,3,001,2022_May_21_1932,expDesign_,2021.2.3,None,
0,1,0,1,1,132,313,1222,222,1,1,0,1,0,0,29,29,29,,,,,,,,,,,,,1072.8623632999952,1073.8648220999748,1073.8461403999827,1078.6515689999796,1078.6515689999796,None,1074.8487973666672,1077.666170899989,"['num_1', 'num_3', 'num_2']","[0.7445720999967307, 1.168680700007826, 1.5848076999827754]",1078.6515689999796,None,,,,,,,,,,,,,3,001,2022_May_21_1932,expDesign_,2021.2.3,None,
1,1,1,1,1,313,131,3321,311,0,1,0,1,0,0,30,30,30,,,,,,,,,,,,,1087.6409189999977,1088.6437307999877,1088.6437307999877,1093.4454383999982,1093.4454383999982,None,1089.642534066665,None,"['num_2', 'num_3', 'num_1']","[0.7186337999883108, 1.0627961000136565, 1.5586454000149388]",1093.4454383999982,None,,,,,,,,,,,,,3,001,2022_May_21_1932,expDesign_,2021.2.3,None,
1,1,0,0,0,132,323,2131,222,0,1,0,1,0,0,31,31,31,,,,,,,,,,,,,1102.4543963999895,1103.4552879999974,1103.4552879999974,1108.2574818999856,1108.2574818999856,None,1104.4555669666481,1107.2752795999986,"['num_3', 'num_1', 'num_2']","[1.1147555999923497, 1.458721399976639, 1.834713999996893]",1108.2574818999856,None,,,,,,,,,,,,,3,001,2022_May_21_1932,expDesign_,2021.2.3,None,
1,0,1,0,1,321,233,2313,131,1,2,0,2,0,0,0,0,0,,,,,,,2675.199907699978,None,space,2.8986135000013746,2675.199907699978,None,2679.153251999989,2680.1537690999976,2680.137668099982,2684.941270399984,2684.941270399984,None,2681.1380425666616,2683.956857699988,"['num_1', 'num_2', 'num_1']","[1.2134618000127375, 1.589405100006843, 1.9097341000160668]",2684.941270399984,None,1116.2652913999918,None,space,1548.8176886000147,1116.2652913999918,None,,,,,,,3,001,2022_May_21_1932,expDesign_,2021.2.3,None,
1,1,1,0,0,332,213,3312,123,1,2,0,2,0,0,1,1,1,,,,,,,,,,,,,2693.930886999995,2694.932171499997,2694.932171499997,2699.7359651000006,2699.7359651000006,None,2695.933151366659,None,"['num_2', 'num_2', 'num_1']","[0.4426596999983303, 0.682692100002896, 1.0666278999997303]",2699.7359651000006,None,,,,,,,,,,,,,3,001,2022_May_21_1932,expDesign_,2021.2.3,None,
1,0,0,0,0,212,121,2132,321,0,2,0,2,0,0,2,2,2,,,,,,,,,,,,,2708.7431584000005,2709.7441498999833,2709.727639299992,2714.5313331999932,2714.5313331999932,None,2710.7284896666574,2713.5473592999915,"['num_1', 'num_3', 'num_2']","[0.5514561999880243, 1.1518321000039577, 1.663329100003466]",2714.5313331999932,None,,,,,,,,,,,,,3,001,2022_May_21_1932,expDesign_,2021.2.3,None,
0,1,1,0,1,232,323,3213,332,0,2,0,2,0,0,3,3,3,,,,,,,,,,,,,2723.5391016999783,2724.5391081999987,2724.522793299984,2729.3265500999987,2729.3265500999987,None,2725.523466566669,None,"['num_3', 'num_1', 'num_2']","[1.1082959999912418, 1.5641377000138164, 1.9163463000149932]",2729.3265500999987,None,,,,,,,,,,,,,3,001,2022_May_21_1932,expDesign_,2021.2.3,None,
0,1,1,1,0,312,123,1211,323,1,2,0,2,0,0,4,4,4,,,,,,,,,,,,,2738.3335407999984,2739.334578899987,2739.334578899987,2744.138558799983,2744.138558799983,None,2740.334849166659,None,"['num_3', 'num_2', 'num_3']","[1.28790399999707, 1.6720751999819186, 2.064032700000098]",2744.138558799983,None,,,,,,,,,,,,,3,001,2022_May_21_1932,expDesign_,2021.2.3,None,
0,0,0,0,1,322,213,1232,211,1,2,0,2,0,0,5,5,5,,,,,,,,,,,,,2753.146205600002,2754.1464066999906,2754.1299950999964,2758.933762999979,2758.933762999979,None,2755.130550666658,None,"['num_2', 'num_1', 'num_2']","[1.132563899998786, 1.5092747999879066, 1.9729482999828178]",2758.933762999979,None,,,,,,,,,,,,,3,001,2022_May_21_1932,expDesign_,2021.2.3,None,
1,0,1,0,0,213,322,1122,133,0,2,0,2,0,0,6,6,6,,,,,,,,,,,,,2767.941155299981,2768.9421083999914,2768.9421083999914,2773.745512900001,2773.745512900001,None,2769.9425087666646,None,"['num_2', 'num_1', 'num_3']","[0.993145899992669, 1.4652383000066038, 2.2570193000137806]",2773.745512900001,None,,,,,,,,,,,,,3,001,2022_May_21_1932,expDesign_,2021.2.3,None,
0,0,1,1,1,123,311,2232,223,1,2,0,2,0,0,7,7,7,,,,,,,,,,,,,2782.73583759999,2783.7368443000014,2783.7368443000014,2788.5409629999776,2788.524062599987,None,2784.7211420666467,None,"['num_2', 'num_3', 'num_2']","[0.886233999975957, 1.366485799982911, 1.8706883999984711]",2788.524062599987,None,,,,,,,,,,,,,3,001,2022_May_21_1932,expDesign_,2021.2.3,None,
1,1,1,0,1,123,212,3122,121,1,2,0,2,0,0,8,8,8,,,,,,,,,,,,,2797.5484419999993,2798.548731899995,2798.5324483999866,2803.3359098999936,2803.3359098999936,None,2799.53318766665,None,"['num_2', 'num_3', 'num_1']","[1.3148040000232868, 1.6348427000048105, 2.411036300007254]",2803.3359098999936,None,,,,,,,,,,,,,3,001,2022_May_21_1932,expDesign_,2021.2.3,None,
0,0,1,0,1,123,232,1231,222,0,2,0,2,0,0,9,9,9,,,,,,,,,,,,,2812.3438496000017,2813.344055499998,2813.3274627999926,2818.1314477999986,2818.1314477999986,None,2814.328138766669,2817.146897699975,"['num_3', 'num_1', 'num_2']","[0.5029694999975618, 1.1191382000106387, 2.022877800016431]",2818.1314477999986,None,,,,,,,,,,,,,3,001,2022_May_21_1932,expDesign_,2021.2.3,None,
1,0,0,1,1,213,122,1322,123,0,2,0,2,0,0,10,10,10,,,,,,,,,,,,,2827.138262099994,2828.1393266999803,2828.1393266999803,2832.9431006999803,2832.9431006999803,None,2829.140345166645,None,"['num_2', 'num_3', 'num_2']","[1.8674083999940194, 2.987712100002682, 3.7472812999913003]",2832.9431006999803,None,,,,,,,,,,,,,3,001,2022_May_21_1932,expDesign_,2021.2.3,None,
1,0,0,1,0,323,132,3233,323,0,2,0,2,0,0,11,11,11,,,,,,,,,,,,,2841.9353577999864,2842.9344656999747,2842.9344656999747,2847.738528499991,2847.738528499991,None,2843.935443866653,2846.754157999996,"['num_2', 'num_1', 'num_2']","[1.1920305000094231, 1.6398337999999058, 2.007959499984281]",2847.738528499991,None,,,,,,,,,,,,,3,001,2022_May_21_1932,expDesign_,2021.2.3,None,
1,1,0,0,0,213,132,3331,211,0,2,0,2,0,0,12,12,12,,,,,,,,,,,,,2856.746122499986,2857.746590499999,2857.7299485999974,2862.5337970999826,2862.5337970999826,None,2858.730184166667,None,"['num_1', 'num_2', 'num_3']","[0.39664799999445677, 0.7086432999931276, 1.1087092999950983]",2862.5337970999826,None,,,,,,,,,,,,,3,001,2022_May_21_1932,expDesign_,2021.2.3,None,
0,1,0,0,1,131,313,1222,313,0,2,0,2,0,0,13,13,13,,,,,,,,,,,,,2871.540563699993,2872.541770199983,2872.541770199983,2877.3452216000005,2877.3452216000005,None,2873.542598066652,None,"['num_3', 'num_1', 'num_3']","[0.6971124999981839, 1.4653079000127036, 1.9290063999942504]",2877.3452216000005,None,,,,,,,,,,,,,3,001,2022_May_21_1932,expDesign_,2021.2.3,None,
0,0,0,1,0,112,321,3123,211,0,2,0,2,0,0,14,14,14,,,,,,,,,,,,,2886.335631199996,2887.337153999979,2887.337153999979,2892.141032799991,2892.141032799991,None,2888.338026866641,2891.156608599995,"['num_2', 'num_1', 'num_2']","[0.7257036999799311, 1.253053299995372, 1.7732749999850057]",2892.141032799991,None,,,,,,,,,,,,,3,001,2022_May_21_1932,expDesign_,2021.2.3,None,
1,1,0,0,1,123,312,3123,331,1,2,0,2,0,0,15,15,15,,,,,,,,,,,,,2901.1477221999958,2902.148809599981,2902.132129799982,2906.935904999991,2906.919050700002,None,2903.1328202666523,None,"['num_1', 'num_3', 'num_2']","[0.8672791999997571, 1.507264399988344, 2.0111348000064027]",2906.919050700002,None,,,,,,,,,,,,,3,001,2022_May_21_1932,expDesign_,2021.2.3,None,
0,0,0,1,1,231,323,2123,222,1,2,0,2,0,0,16,16,16,,,,,,,,,,,,,2915.926502999995,2916.9274449999793,2916.9274449999793,2921.731246899988,2921.731246899988,None,2917.9280990666634,None,"['num_3', 'num_1', 'num_1']","[0.702874000009615, 1.5032348000095226, 2.102881900005741]",2921.731246899988,None,,,,,,,,,,,,,3,001,2022_May_21_1932,expDesign_,2021.2.3,None,
0,0,1,1,0,231,123,1123,221,0,2,0,2,0,0,17,17,17,,,,,,,,,,,,,2930.739091700001,2931.739160199999,2931.739160199999,2936.5429450999945,2936.5429450999945,None,2932.7398072666588,None,"['num_2', 'num_3', 'num_1']","[0.7313847000186797, 1.243459699995583, 2.051297300000442]",2936.5429450999945,None,,,,,,,,,,,,,3,001,2022_May_21_1932,expDesign_,2021.2.3,None,
1,0,0,0,1,313,232,1333,332,1,2,0,2,0,0,18,18,18,,,,,,,,,,,,,2945.5338116999774,2946.534753499989,2946.534753499989,2951.3384505999857,2951.3384505999857,None,2947.535267466654,2950.354106199986,"['num_1', 'num_3', 'num_3']","[0.8396203000156675, 1.2881294000253547, 1.6320449000049848]",2951.3384505999857,None,,,,,,,,,,,,,3,001,2022_May_21_1932,expDesign_,2021.2.3,None,
0,1,1,1,1,232,313,2221,332,0,2,0,2,0,0,19,19,19,,,,,,,,,,,,,2960.3462747999874,2961.346362099983,2961.3297213999904,2966.1333853999968,2966.1333853999968,None,2962.331024366668,None,"['num_3', 'num_2', 'num_3']","[0.7812597999873105, 1.2289979999768548, 1.6848407999787014]",2966.1333853999968,None,,,,,,,,,,,,,3,001,2022_May_21_1932,expDesign_,2021.2.3,None,
0,1,0,0,0,131,312,3312,213,0,2,0,2,0,0,20,20,20,,,,,,,,,,,,,2975.14133079999,2976.1420649999927,2976.1420649999927,2980.9455505999795,2980.9455505999795,None,2977.1423108666536,None,"['num_1', 'num_2', 'num_1']","[0.5047652999928687, 1.0728670999815222, 1.6727376999915577]",2980.9455505999795,None,,,,,,,,,,,,,3,001,2022_May_21_1932,expDesign_,2021.2.3,None,
0,0,1,0,0,212,123,2321,322,1,2,0,2,0,0,21,21,21,,,,,,,,,,,,,2989.9524864999985,2990.953550999984,2990.9368381999957,2995.740759599983,2995.740759599983,None,2991.9391054666526,None,"['num_2', 'num_3', 'num_1']","[0.7655817000195384, 1.2776732000056654, 2.2772036000096705]",2995.740759599983,None,,,,,,,,,,,,,3,001,2022_May_21_1932,expDesign_,2021.2.3,None,
1,1,0,1,1,121,213,3331,212,0,2,0,2,0,0,22,22,22,,,,,,,,,,,,,3004.7484177000006,3005.748544299975,3005.7321996999963,3010.53582629998,3010.53582629998,None,3006.733287366664,3009.551840899978,"['num_1', 'num_3', 'num_2']","[0.858353099989472, 1.3225250999967102, 1.6983978000062052]",3010.53582629998,None,,,,,,,,,,,,,3,001,2022_May_21_1932,expDesign_,2021.2.3,None,
0,0,0,0,0,123,231,2112,223,1,2,0,2,0,0,23,23,23,,,,,,,,,,,,,3019.525862999988,3020.5268844999955,3020.5268844999955,3025.3483820999973,3025.315883299976,None,3021.511925866657,3024.330706399982,"['num_1', 'num_2', 'num_1']","[0.9743941999913659, 1.3416884999896865, 1.702572699985467]",3025.315883299976,None,,,,,,,,,,,,,3,001,2022_May_21_1932,expDesign_,2021.2.3,None,
0,1,0,1,1,232,323,3112,332,1,2,0,2,0,0,24,24,24,,,,,,,,,,,,,3034.338759299979,3035.339088299981,3035.305933399999,3040.1095690999937,3040.1095690999937,3033.339683999977,3036.306481766664,None,"['num_1', 'num_3', 'num_2']","[0.996473800012609, 2.2209710000024643, 3.68465060001472]",3040.1095690999937,3033.339683999977,,,,,,,,,,,,,3,001,2022_May_21_1932,expDesign_,2021.2.3,None,
1,0,1,1,0,323,232,1232,223,1,2,0,2,0,0,25,25,25,,,,,,,,,,,,,3049.1173737999925,3050.1177562999947,3050.1008107999805,3054.905057999975,3054.905057999975,3048.134614599985,3051.101983966659,3053.920665599988,"['num_2', 'num_3', 'num_1']","[0.6735958000062965, 1.0650424000050407, 1.5292731999943499]",3054.905057999975,3048.134614599985,,,,,,,,,,,,,3,001,2022_May_21_1932,expDesign_,2021.2.3,None,
1,0,1,1,1,213,321,2232,322,1,2,0,2,0,0,26,26,26,,,,,,,,,,,,,3063.9117953999958,3064.912991499994,3064.912991499994,3069.7165322999936,3069.7165322999936,3062.9302550999855,3065.9130977666687,None,"['num_1', 'num_3', 'num_2']","[0.4936409000074491, 0.8937383000156842, 1.302058000001125]",3069.7165322999936,3062.9302550999855,,,,,,,,,,,,,3,001,2022_May_21_1932,expDesign_,2021.2.3,None,
1,1,0,1,0,133,312,2123,312,0,2,0,2,0,0,27,27,27,,,,,,,,,,,,,3078.7240537999896,3079.7247803999926,3079.707851299987,3084.511909599998,3084.511909599998,3077.7415045999805,3080.7086220666574,None,"['num_2', 'num_2', 'num_1']","[0.38644509998266585, 0.802429299976211, 1.2822068999812473]",3084.511909599998,3077.7415045999805,,,,,,,,,,,,,3,001,2022_May_21_1932,expDesign_,2021.2.3,None,
0,1,1,0,0,231,123,3121,121,1,2,0,2,0,0,28,28,28,,,,,,,,,,,,,3093.519007499999,3094.5205262999807,3094.5205262999807,3099.3238183999783,3099.3071043999807,3092.5369680000003,3095.521047266641,3098.340141499997,"['num_1', 'num_3', 'num_2']","[0.495127300004242, 0.9270420999964699, 1.399254199990537]",3099.3071043999807,3092.5369680000003,,,,,,,,,,,,,3,001,2022_May_21_1932,expDesign_,2021.2.3,None,
0,1,0,1,0,313,231,3213,131,0,2,0,2,0,0,29,29,29,,,,,,,,,,,,,3108.2977107999905,3109.298677899991,3109.298677899991,3114.1024600999954,3114.1024600999954,3107.3140838999825,3110.2994241666497,3113.118198399985,"['num_1', 'num_2', 'num_1']","[0.5878209000220522, 0.8996051000140142, 1.2836192000249866]",3114.1024600999954,3107.3140838999825,,,,,,,,,,,,,3,001,2022_May_21_1932,expDesign_,2021.2.3,None,
1,1,1,1,1,132,213,1131,223,0,2,0,2,0,0,30,30,30,,,,,,,,,,,,,3123.1094721999834,3124.110505299992,3124.110505299992,3128.9142267999996,3128.9142267999996,3122.1278194999904,3125.1117289666477,3127.930033599987,"['num_1', 'num_2', 'num_1']","[0.3197785000083968, 0.8880317000148352, 1.4480345000047237]",3128.9142267999996,3122.1278194999904,,,,,,,,,,,,,3,001,2022_May_21_1932,expDesign_,2021.2.3,None,
1,1,1,1,0,211,323,2312,123,1,2,0,2,0,0,31,31,31,,,,,,,,,,,,,3137.9213827999774,3138.9225196999905,3138.9225196999905,3143.726417899976,3143.726417899976,3136.93951929998,3139.9232115666423,None,"['num_1', 'num_1', 'num_3']","[1.5795883999962825, 2.155555099976482, 2.7557462999830022]",3143.726417899976,3136.93951929998,,,,,,,,,,,,,3,001,2022_May_21_1932,expDesign_,2021.2.3,None,
0,1,0,1,0,213,331,1232,231,0,3,0,3,0,0,0,0,0,,,,,,,3188.5297696999914,None,space,6.816395700006979,3188.5297696999914,None,3196.38525989998,3197.385938499996,3197.385938499996,3202.1903541999927,3202.1903541999927,None,3198.3871315666515,None,"['num_3', 'num_2', 'num_2']","[1.78766820000601, 2.147647500009043, 2.9158972000004724]",3202.1903541999927,None,3151.7508436999924,None,space,26.755117199994856,3151.7508436999924,None,,,,,,,3,001,2022_May_21_1932,expDesign_,2021.2.3,None,
1,0,1,0,1,313,231,1213,111,1,3,0,3,0,0,1,1,1,,,,,,,,,,,,,3211.1800694999984,3212.1814660999808,3212.1814660999808,3216.985668899986,3216.985668899986,None,3213.1820245666645,None,"['num_3', 'num_1', 'num_1']","[0.5527865000185557, 0.9685646000143606, 1.3202508999966085]",3216.985668899986,None,,,,,,,,,,,,,3,001,2022_May_21_1932,expDesign_,2021.2.3,None,
1,1,1,1,1,122,213,3331,331,1,3,0,3,0,0,2,2,2,,,,,,,,,,,,,3225.992799699976,3226.9931087000004,3226.976499399985,3231.7802606999758,3231.7802606999758,None,3227.977150666648,None,"['num_1', 'num_3', 'num_1']","[0.6217998999927659, 1.1017148999962956, 1.5097500999982003]",3231.7802606999758,None,,,,,,,,,,,,,3,001,2022_May_21_1932,expDesign_,2021.2.3,None,
0,0,1,0,0,232,121,2311,133,1,3,0,3,0,0,3,3,3,,,,,,,,,,,,,3240.8046510999848,3241.8052086999814,3241.788325499976,3246.592704299983,3246.592704299983,None,3242.788564766645,3245.607854699978,"['num_1', 'num_3', 'num_1']","[0.43336060000001453, 0.9214193999941926, 1.3687281000020448]",3246.592704299983,None,,,,,,,,,,,,,3,001,2022_May_21_1932,expDesign_,2021.2.3,None,
0,0,1,1,0,213,131,1312,212,0,3,0,3,0,0,4,4,4,,,,,,,,,,,,,3255.582936999999,3256.583661599987,3256.583661599987,3261.3872159999737,3261.3872159999737,None,3257.584459966664,None,"['num_3', 'num_2', 'num_1']","[1.1826961000042502, 1.886749500001315, 2.3187306000036187]",3261.3872159999737,None,,,,,,,,,,,,,3,001,2022_May_21_1932,expDesign_,2021.2.3,None,
1,0,1,1,1,212,323,3121,311,0,3,0,3,0,0,5,5,5,,,,,,,,,,,,,3270.361337899987,3271.362465699989,3271.362465699989,3276.1660923000018,3276.1660923000018,None,3272.3628220666474,3275.1824608999887,"['num_3', 'num_1', 'num_2']","[0.7158509000146296, 1.867603999999119, 2.4678646000102162]",3276.1660923000018,None,,,,,,,,,,,,,3,001,2022_May_21_1932,expDesign_,2021.2.3,None,
1,1,0,1,0,212,121,1323,212,0,3,0,3,0,0,6,6,6,,,,,,,,,,,,,3285.1734899999865,3286.1741532000015,3286.157453199994,3290.9613637999864,3290.9613637999864,3284.1912180999934,3287.1578699666466,None,"['num_3', 'num_1', 'num_1']","[0.592106900003273, 1.5124758000019938, 2.9046531000058167]",3290.9613637999864,3284.1912180999934,,,,,,,,,,,,,3,001,2022_May_21_1932,expDesign_,2021.2.3,None,
0,1,1,1,0,113,231,3112,331,0,3,0,3,0,0,7,7,7,,,,,,,,,,,,,3299.9682685000007,3300.9692690999946,3300.9692690999946,3305.7730634999753,3305.7730634999753,3298.985769299994,3301.970217666651,None,"['num_1', 'num_3', 'num_2']","[0.8529956999991555, 1.6852892999886535, 2.3487951999995857]",3305.7730634999753,3298.985769299994,,,,,,,,,,,,,3,001,2022_May_21_1932,expDesign_,2021.2.3,None,
0,1,0,0,0,313,232,3231,323,0,3,0,3,0,0,8,8,8,,,,,,,,,,,,,3314.7803954999836,3315.7810742,3315.764800499979,3320.568080600002,3320.568080600002,None,3316.764986366649,None,"['num_1', 'num_3', 'num_2']","[0.5939010999863967, 2.9057043000066187, 4.065880699985428]",3320.568080600002,None,,,,,,,,,,,,,3,001,2022_May_21_1932,expDesign_,2021.2.3,None,
0,0,0,0,1,112,331,1212,332,1,3,0,3,0,0,9,9,9,,,,,,,,,,,,,3329.5929008999956,3330.593757499999,3330.5769624999957,3335.3801857999933,3335.3801857999933,None,3331.5777037666453,3334.396155800001,"['num_1', 'num_3', 'num_1']","[0.36500059999525547, 1.2378508999827318, 1.597912199998973]",3335.3801857999933,None,,,,,,,,,,,,,3,001,2022_May_21_1932,expDesign_,2021.2.3,None,
0,1,1,1,1,312,231,3232,321,1,3,0,3,0,0,10,10,10,,,,,,,,,,,,,3344.3879222999967,3345.3883060999797,3345.3714840999746,3350.1752493999957,3350.1752493999957,None,3346.3725825666666,None,"['num_2', 'num_1', 'num_2']","[0.33850169999641366, 0.7867198000021745, 1.0986036999966018]",3350.1752493999957,None,,,,,,,,,,,,,3,001,2022_May_21_1932,expDesign_,2021.2.3,None,
1,1,1,0,1,231,323,3323,223,1,3,0,3,0,0,11,11,11,,,,,,,,,,,,,3359.182605799986,3360.183379299997,3360.183379299997,3364.9876707999792,3364.9876707999792,None,3361.1840460666613,None,"['num_1', 'num_3', 'num_1']","[0.7024940000264905, 1.0543547999986913, 1.4142477000132203]",3364.9876707999792,None,,,,,,,,,,,,,3,001,2022_May_21_1932,expDesign_,2021.2.3,None,
1,1,0,0,1,232,321,3332,131,1,3,0,3,0,0,12,12,12,,,,,,,,,,,,,3373.9778785999806,3374.9788668999972,3374.9788668999972,3379.782568800001,3379.782568800001,None,3375.979400866669,None,"['num_2', 'num_3', 'num_2']","[0.5866687000088859, 0.9475476000225171, 1.4273644000058994]",3379.782568800001,None,,,,,,,,,,,,,3,001,2022_May_21_1932,expDesign_,2021.2.3,None,
1,1,1,1,0,233,312,1322,131,1,3,0,3,0,0,13,13,13,,,,,,,,,,,,,3388.789762999979,3389.7905004999775,3389.7905004999775,3394.5943503000017,3394.5777956999955,None,3390.791055766666,None,"['num_1', 'num_1', 'num_2']","[0.5761626000166871, 1.2323041000054218, 2.072040900005959]",3394.5777956999955,None,,,,,,,,,,,,,3,001,2022_May_21_1932,expDesign_,2021.2.3,None,
1,0,0,1,0,233,312,1112,333,1,3,0,3,0,0,14,14,14,,,,,,,,,,,,,3403.6023191999993,3404.6025817999907,3404.585865699977,3409.389680399996,3409.389680399996,None,3405.5867533666647,3408.4060360000003,"['num_1', 'num_3', 'num_2']","[0.6200400000088848, 1.100361899996642, 1.6041553000104614]",3409.389680399996,None,,,,,,,,,,,,,3,001,2022_May_21_1932,expDesign_,2021.2.3,None,
1,0,1,1,0,312,121,2212,223,1,3,0,3,0,0,15,15,15,,,,,,,,,,,,,3418.3801463999844,3419.3809851999977,3419.3809851999977,3424.1842136999767,3424.1842136999767,None,3420.381781766661,None,"['num_3', 'num_1', 'num_1']","[0.6497705999936443, 1.1215881000098307, 1.6415857000101823]",3424.1842136999767,None,,,,,,,,,,,,,3,001,2022_May_21_1932,expDesign_,2021.2.3,None,
0,1,1,0,0,123,231,1321,311,1,3,0,3,0,0,16,16,16,,,,,,,,,,,,,3433.192311699997,3434.1930498,3434.1763162999996,3438.9800615999848,3438.9800615999848,None,3435.1773832666554,None,"['num_2', 'num_3', 'num_3']","[0.3497137000085786, 1.1337293999968097, 1.669726099993568]",3438.9800615999848,None,,,,,,,,,,,,,3,001,2022_May_21_1932,expDesign_,2021.2.3,None,
0,0,1,0,1,313,221,3131,121,0,3,0,3,0,0,17,17,17,,,,,,,,,,,,,3447.9879168999905,3448.987956899975,3448.971178899985,3453.775571699982,3453.775571699982,None,3449.972242766646,None,"['num_2', 'num_3', 'num_1']","[0.9701721000019461, 1.3139477999939118, 1.7302451999858022]",3453.775571699982,None,,,,,,,,,,,,,3,001,2022_May_21_1932,expDesign_,2021.2.3,None,
1,0,1,0,0,213,131,2111,111,0,3,0,3,0,0,18,18,18,,,,,,,,,,,,,3462.7834003999887,3463.7836827999854,3463.7836827999854,3468.5871355999843,3468.5871355999843,None,3464.7842675666657,3467.603790399997,"['num_3', 'num_2', 'num_1']","[0.718336799996905, 1.1022918999951798, 1.5268809999979567]",3468.5871355999843,None,,,,,,,,,,,,,3,001,2022_May_21_1932,expDesign_,2021.2.3,None,
0,1,0,0,1,323,112,2313,222,0,3,0,3,0,0,19,19,19,,,,,,,,,,,,,3477.5944320999843,3478.5957449999987,3478.5785449999967,3483.3826186999795,3483.3826186999795,None,3479.579073766658,None,"['num_1', 'num_1', 'num_1']","[0.483276199985994, 0.9231449000071734, 1.3951599999854807]",3483.3826186999795,None,,,,,,,,,,,,,3,001,2022_May_21_1932,expDesign_,2021.2.3,None,
0,0,1,1,1,212,131,1222,333,0,3,0,3,0,0,20,20,20,,,,,,,,,,,,,3492.406096999999,3493.406931699981,3493.3903648999985,3498.1942500000005,3498.1774536999874,None,3494.391345866669,None,"['num_1', 'num_2', 'num_3']","[0.7600710000260733, 1.1921571000129916, 1.8564091000007465]",3498.1774536999874,None,,,,,,,,,,,,,3,001,2022_May_21_1932,expDesign_,2021.2.3,None,
0,0,0,1,0,121,232,3223,111,0,3,0,3,0,0,21,21,21,,,,,,,,,,,,,3507.1851725000015,3508.1856087999768,3508.1856087999768,3512.9897421999776,3512.9897421999776,None,3509.1866110666638,None,"['num_2', 'num_3', 'num_2']","[0.38771479998831637, 0.8758901999972295, 1.3555728000064846]",3512.9897421999776,None,,,,,,,,,,,,,3,001,2022_May_21_1932,expDesign_,2021.2.3,None,
0,0,0,0,0,312,131,3323,231,0,3,0,3,0,0,22,22,22,,,,,,,,,,,,,3521.980194999982,3522.982236199983,3522.982236199983,3527.7846202999935,3527.7846202999935,None,3523.9818588666426,3526.800729299983,"['num_2', 'num_3', 'num_2']","[0.4810962999763433, 0.9372682999819517, 1.3852104999823496]",3527.7846202999935,None,,,,,,,,,,,,,3,001,2022_May_21_1932,expDesign_,2021.2.3,None,
1,1,0,0,0,311,232,1112,311,1,3,0,3,0,0,23,23,23,,,,,,,,,,,,,3536.792515499983,3537.7929173999873,3537.776238499995,3542.5803376999975,3542.5803376999975,None,3538.776963166664,None,"['num_1', 'num_3', 'num_1']","[0.7654246999882162, 1.0691646999912336, 1.5570917000004556]",3542.5803376999975,None,,,,,,,,,,,,,3,001,2022_May_21_1932,expDesign_,2021.2.3,None,
1,0,0,0,0,132,211,3233,233,1,3,0,3,0,0,24,24,24,,,,,,,,,,,,,3551.6051917999866,3552.604978999996,3552.5884220000007,3557.392001899978,3557.392001899978,None,3553.5891403666506,None,"['num_2', 'num_3', 'num_2']","[0.36149539999314584, 0.7778571999806445, 1.2095562999893446]",3557.392001899978,None,,,,,,,,,,,,,3,001,2022_May_21_1932,expDesign_,2021.2.3,None,
0,0,0,1,1,231,312,3132,333,0,3,0,3,0,0,25,25,25,,,,,,,,,,,,,3566.382499899977,3567.383356199978,3567.383356199978,3572.1868062999856,3572.1868062999856,None,3568.384188966655,3571.203347499977,"['num_2', 'num_3', 'num_1']","[0.4708161999878939, 0.9109287999744993, 1.3749517999822274]",3572.1868062999856,None,,,,,,,,,,,,,3,001,2022_May_21_1932,expDesign_,2021.2.3,None,
0,1,1,0,1,113,321,3121,113,0,3,0,3,0,0,26,26,26,,,,,,,,,,,,,3581.177792799979,3582.1783753999916,3582.161818599998,3586.965450699994,3586.965450699994,None,3583.1628038666427,3585.982034399989,"['num_1', 'num_2', 'num_1']","[0.3720376999990549, 0.7642828999960329, 1.131901899992954]",3586.965450699994,None,,,,,,,,,,,,,3,001,2022_May_21_1932,expDesign_,2021.2.3,None,
1,1,1,0,0,312,221,1123,232,0,3,0,3,0,0,27,27,27,,,,,,,,,,,,,3595.9728590000013,3596.973411199986,3596.973411199986,3601.7776594999887,3601.7776594999887,3594.990520499996,3597.974386166669,None,"['num_2', 'num_3', 'num_1']","[0.8798972000076901, 1.1916248000052292, 1.6076912000135053]",3601.7776594999887,3594.990520499996,,,,,,,,,,,,,3,001,2022_May_21_1932,expDesign_,2021.2.3,None,
1,1,0,1,1,231,312,1312,231,0,3,0,3,0,0,28,28,28,,,,,,,,,,,,,3610.7850471999845,3611.786083299987,3611.786083299987,3616.589469300001,3616.589469300001,None,3612.7863732666633,None,"['num_2', 'num_3', 'num_1']","[0.3323124000162352, 0.7962149000086356, 1.4599397999991197]",3616.589469300001,None,,,,,,,,,,,,,3,001,2022_May_21_1932,expDesign_,2021.2.3,None,
1,0,0,0,1,121,212,2221,133,1,3,0,3,0,0,29,29,29,,,,,,,,,,,,,3625.5795679999865,3626.5807901999797,3626.5807901999797,3631.3848228999996,3631.3848228999996,None,3627.581484366649,3630.4006394000025,"['num_2', 'num_3', 'num_1']","[0.7046181999903638, 1.3611547999898903, 1.95280240001739]",3631.3848228999996,None,,,,,,,,,,,,,3,001,2022_May_21_1932,expDesign_,2021.2.3,None,
0,1,0,1,1,213,321,3211,312,1,3,0,3,0,0,30,30,30,,,,,,,,,,,,,3640.375968099979,3641.376228999987,3641.3590559999866,3646.1634442999784,3646.1634442999784,None,3642.3609424666543,None,"['num_3', 'num_1', 'num_2']","[0.9583092000102624, 1.4221314000023995, 1.7424317999975756]",3646.1634442999784,None,,,,,,,,,,,,,3,001,2022_May_21_1932,expDesign_,2021.2.3,None,
1,0,0,1,1,122,213,3211,222,1,3,0,3,0,0,31,31,31,,,,,,,,,,,,,3655.1700939,3656.1711718000006,3656.1711718000006,3660.974881399976,3660.974881399976,3654.1885536999907,3657.1726122666482,3659.991121400002,"['num_2', 'num_3', 'num_1']","[0.49888860000646673, 0.9223175999941304, 1.6108178999857046]",3660.974881399976,3654.1885536999907,,,,,,,,,,,,,3,001,2022_May_21_1932,expDesign_,2021.2.3,None,
0,0,0,1,1,312,231,1221,222,0,4,0,4,0,0,0,0,0,,,,,,,3917.7980149999785,None,space,2.0034223000111524,3917.7980149999785,None,3920.850456299988,3921.8512364999915,3921.8512364999915,3926.6552573999797,3926.6552573999797,None,3922.8522196666495,None,"['num_2', 'num_3', 'num_1']","[0.9141256999864709, 1.5218798999849241, 2.1621730999904685]",3926.6552573999797,None,3668.999929599988,None,space,238.76915179999196,3668.999929599988,None,,,,,,,3,001,2022_May_21_1932,expDesign_,2021.2.3,None,
0,1,1,1,1,321,213,2221,112,0,4,0,4,0,0,1,1,1,,,,,,,,,,,,,3935.6625175999943,3936.662716599996,3936.6460232999816,3941.4505827999965,3941.4505827999965,None,3937.647571766666,3940.4667680999846,"['num_1', 'num_3', 'num_1']","[0.34275999999954365, 1.054392399993958, 1.6227607000037096]",3941.4505827999965,None,,,,,,,,,,,,,3,001,2022_May_21_1932,expDesign_,2021.2.3,None,
0,1,1,0,0,213,132,2313,113,1,4,0,4,0,0,2,2,2,,,,,,,,,,,,,3950.441680399992,3951.442095299979,3951.442095299979,3956.2451539999747,3956.2451539999747,None,3952.4424752666423,None,"['num_2', 'num_1', 'num_2']","[1.2038047999958508, 1.7638832000084221, 2.2364326000097208]",3956.2451539999747,None,,,,,,,,,,,,,3,001,2022_May_21_1932,expDesign_,2021.2.3,None,
1,0,0,1,0,332,211,2131,232,1,4,0,4,0,0,3,3,3,,,,,,,,,,,,,3965.2698167999915,3966.2705562999763,3966.253805699991,3971.057873999991,3971.057873999991,None,3967.2543753666437,3970.0733905999805,"['num_1', 'num_3', 'num_1']","[0.8795931999920867, 1.4791788999864366, 1.847430699999677]",3971.057873999991,None,,,,,,,,,,,,,3,001,2022_May_21_1932,expDesign_,2021.2.3,None,
1,1,1,1,1,323,212,2131,332,0,4,0,4,0,0,4,4,4,,,,,,,,,,,,,3980.0651925999846,3981.066194599989,3981.0488525999826,3985.852853499993,3985.852853499993,None,3982.0503001666552,None,"['num_3', 'num_1', 'num_3']","[0.5246365999919362, 1.260257299989462, 1.924281699990388]",3985.852853499993,None,,,,,,,,,,,,,3,001,2022_May_21_1932,expDesign_,2021.2.3,None,
1,1,1,1,0,131,212,3211,223,1,4,0,4,0,0,5,5,5,,,,,,,,,,,,,3994.8431674999883,3995.8440497999836,3995.8440497999836,4000.6478893999883,4000.6478893999883,None,3996.84551566665,3999.6639586999954,"['num_3', 'num_2', 'num_3']","[0.4576864000118803, 1.4732686000061221, 2.0805738999915775]",4000.6478893999883,None,,,,,,,,,,,,,3,001,2022_May_21_1932,expDesign_,2021.2.3,None,
0,0,1,0,1,212,323,2111,233,0,4,0,4,0,0,6,6,6,,,,,,,,,,,,,4009.6720865999814,4010.6729694999813,4010.656071699981,4015.460132099979,4015.460132099979,None,4011.658309466646,4014.4757630999957,"['num_2', 'num_3', 'num_1']","[0.8769042000058107, 1.269176800007699, 1.925709100003587]",4015.460132099979,None,,,,,,,,,,,,,3,001,2022_May_21_1932,expDesign_,2021.2.3,None,
0,1,1,0,1,312,123,2223,133,1,4,0,4,0,0,7,7,7,,,,,,,,,,,,,4024.466863699985,4025.468348800001,4025.4510303999996,4030.255112099985,4030.255112099985,None,4026.4518244666438,None,"['num_1', 'num_2', 'num_3']","[0.7619486000039615, 1.2343548000208102, 1.6977828000090085]",4030.255112099985,None,,,,,,,,,,,,,3,001,2022_May_21_1932,expDesign_,2021.2.3,None,
1,0,1,0,1,312,123,2231,131,1,4,0,4,0,0,8,8,8,,,,,,,,,,,,,4039.246051299997,4040.2472645999806,4040.2297338999924,4045.034973199974,4045.034973199974,None,4041.2311836666527,None,"['num_3', 'num_3', 'num_2']","[0.5261207000003196, 0.9022018999967258, 1.5335026000102516]",4045.034973199974,None,,,,,,,,,,,,,3,001,2022_May_21_1932,expDesign_,2021.2.3,None,
0,0,1,0,0,123,212,3312,112,1,4,0,4,0,0,9,9,9,,,,,,,,,,,,,4054.042288799974,4055.0415466999984,4055.0415466999984,4059.8455249999824,4059.8455249999824,None,4056.0427527666657,None,"['num_3', 'num_2', 'num_3']","[1.4513574999873526, 1.9948643999814522, 2.3877264999900945]",4059.8455249999824,None,,,,,,,,,,,,,3,001,2022_May_21_1932,expDesign_,2021.2.3,None,
0,1,0,1,0,321,133,3213,322,0,4,0,4,0,0,10,10,10,,,,,,,,,,,,,4068.8536425999773,4069.8537539999816,4069.8369444999844,4074.6407822999754,4074.6407822999754,None,4070.837656266642,None,"['num_2', 'num_3', 'num_1']","[0.5121805999951903, 0.9441149999911431, 1.3762357000086922]",4074.6407822999754,None,,,,,,,,,,,,,3,001,2022_May_21_1932,expDesign_,2021.2.3,None,
1,1,0,0,0,323,131,2232,333,1,4,0,4,0,0,11,11,11,,,,,,,,,,,,,4083.6480319999973,4084.6490008999826,4084.6490008999826,4089.452411699982,4089.452411699982,None,4085.649602966649,None,"['num_2', 'num_3', 'num_1']","[0.9327662000141572, 1.2929517999873497, 1.7085057999938726]",4089.452411699982,None,,,,,,,,,,,,,3,001,2022_May_21_1932,expDesign_,2021.2.3,None,
0,0,0,1,0,232,323,1121,222,0,4,0,4,0,0,12,12,12,,,,,,,,,,,,,4098.443759599992,4099.444163599983,4099.427664099989,4104.231133499998,4104.231133499998,None,4100.428099766668,4103.247367799981,"['num_3', 'num_1', 'num_3']","[0.6979694000037853, 1.1777354000078049, 2.8260785000165924]",4104.231133499998,None,,,,,,,,,,,,,3,001,2022_May_21_1932,expDesign_,2021.2.3,None,
0,1,0,0,0,212,123,1132,323,0,4,0,4,0,0,13,13,13,,,,,,,,,,,,,4113.255517499987,4114.25593449999,4114.2390989999985,4119.0431257999735,4119.0431257999735,4112.2558517,4115.240118466641,None,"['num_2', 'num_1', 'num_2']","[0.5181953000137582, 0.9018189999915194, 1.3098378000140656]",4119.0431257999735,4112.2558517,,,,,,,,,,,,,3,001,2022_May_21_1932,expDesign_,2021.2.3,None,
0,0,0,0,0,312,131,3233,122,0,4,0,4,0,0,14,14,14,,,,,,,,,,,,,4128.067425099987,4129.067826999992,4129.051235799998,4133.854848499992,4133.854848499992,None,4130.05195206666,4132.871254500002,"['num_2', 'num_1', 'num_3']","[0.7221687000128441, 1.2499845999991521, 2.298437899997225]",4133.854848499992,None,,,,,,,,,,,,,3,001,2022_May_21_1932,expDesign_,2021.2.3,None,
0,1,1,1,0,231,113,3311,132,1,4,0,4,0,0,15,15,15,,,,,,,,,,,,,4142.86244289999,4143.863186999981,4143.846364099998,4148.650200399978,4148.650200399978,None,4144.846999566656,None,"['num_1', 'num_3', 'num_1']","[0.43882579999626614, 0.9186474000161979, 1.422611300018616]",4148.650200399978,None,,,,,,,,,,,,,3,001,2022_May_21_1932,expDesign_,2021.2.3,None,
1,0,1,1,1,232,323,1112,311,1,4,0,4,0,0,16,16,16,,,,,,,,,,,,,4157.658252299996,4158.658390500001,4158.642105199979,4163.445666499989,4163.445666499989,None,4159.642479266655,4162.4619518999825,"['num_3', 'num_1', 'num_3']","[0.3872517999843694, 0.9793241999868769, 1.4354062999773305]",4163.445666499989,None,,,,,,,,,,,,,3,001,2022_May_21_1932,expDesign_,2021.2.3,None,
1,1,0,1,0,223,112,3123,223,0,4,0,4,0,0,17,17,17,,,,,,,,,,,,,4172.469635199988,4173.470488499996,4173.453516299982,4178.257527599984,4178.257527599984,None,4174.454034666651,4177.273962799984,"['num_3', 'num_1', 'num_3']","[0.7681359999987762, 1.2794424000021536, 1.8156759999983478]",4178.257527599984,None,,,,,,,,,,,,,3,001,2022_May_21_1932,expDesign_,2021.2.3,None,
1,1,0,1,1,323,131,2112,133,1,4,0,4,0,0,18,18,18,,,,,,,,,,,,,4187.231055699987,4188.232320699986,4188.232320699986,4193.036009399977,4193.036009399977,None,4189.233048466649,4192.052376699983,"['num_3', 'num_1', 'num_2']","[0.5889983999950346, 1.3728582999901846, 1.540560599998571]",4193.036009399977,None,,,,,,,,,,,,,3,001,2022_May_21_1932,expDesign_,2021.2.3,None,
1,0,0,1,1,331,123,3121,113,1,4,0,4,0,0,19,19,19,,,,,,,,,,,,,4202.059924100002,4203.060773799982,4203.044117199985,4207.847668599978,4207.847668599978,None,4204.045475566647,None,"['num_1', 'num_1', 'num_2']","[0.39323710001190193, 0.7132809000031557, 1.1130677000037394]",4207.847668599978,None,,,,,,,,,,,,,3,001,2022_May_21_1932,expDesign_,2021.2.3,None,
0,1,0,1,1,212,121,2131,222,1,4,0,4,0,0,20,20,20,,,,,,,,,,,,,4216.872026899975,4217.8726297999965,4217.855903299991,4222.6598811,4222.6598811,None,4218.856390966659,None,"['num_1', 'num_2', 'num_3']","[1.8289400000066962, 1.940972700016573, 2.604969500011066]",4222.6598811,None,,,,,,,,,,,,,3,001,2022_May_21_1932,expDesign_,2021.2.3,None,
1,0,1,1,0,122,313,2221,211,1,4,0,4,0,0,21,21,21,,,,,,,,,,,,,4231.667444699997,4232.667313099984,4232.651216099999,4237.455081299995,4237.455081299995,None,4233.652100066658,4236.4713567,"['num_2', 'num_1', 'num_2']","[0.4260698000143748, 0.7698694000137039, 1.073767099995166]",4237.455081299995,None,,,,,,,,,,,,,3,001,2022_May_21_1932,expDesign_,2021.2.3,None,
0,0,0,0,1,312,121,1312,111,0,4,0,4,0,0,22,22,22,,,,,,,,,,,,,4246.445706500002,4247.4464690999885,4247.4464690999885,4252.2504643999855,4252.2504643999855,None,4248.446891166652,None,"['num_3', 'num_1', 'num_3']","[0.3265865000139456, 0.6862304999958724, 1.0625106999941636]",4252.2504643999855,None,,,,,,,,,,,,,3,001,2022_May_21_1932,expDesign_,2021.2.3,None,
0,1,0,0,1,321,132,3211,223,0,4,0,4,0,0,23,23,23,,,,,,,,,,,,,4261.258689999988,4262.258307599986,4262.241660499974,4267.0459197999735,4267.0459197999735,None,4263.242436866658,4266.060978099995,"['num_2', 'num_3', 'num_1']","[2.9389977999962866, 3.5787960999878123, 4.027119499980472]",4267.0459197999735,None,,,,,,,,,,,,,3,001,2022_May_21_1932,expDesign_,2021.2.3,None,
0,0,1,1,1,121,213,1313,231,0,4,0,4,0,0,24,24,24,,,,,,,,,,,,,4276.069148999988,4277.0703822999785,4277.053257399995,4281.857117999985,4281.857117999985,None,4278.054254466642,None,"['num_2', 'num_3', 'num_1']","[1.8557217000052333, 2.263767700002063, 2.679803400009405]",4281.857117999985,None,,,,,,,,,,,,,3,001,2022_May_21_1932,expDesign_,2021.2.3,None,
1,1,0,0,1,213,132,3222,333,0,4,0,4,0,0,25,25,25,,,,,,,,,,,,,4290.865054099995,4291.865265999979,4291.8486451999925,4296.652467899985,4296.652467899985,None,4292.849405066667,4295.668482399982,"['num_1', 'num_3', 'num_1']","[0.8764099999971222, 1.2441651999833994, 1.7002515999774914]",4296.652467899985,None,,,,,,,,,,,,,3,001,2022_May_21_1932,expDesign_,2021.2.3,None,
1,0,1,0,0,232,321,3222,233,1,4,0,4,0,0,26,26,26,,,,,,,,,,,,,4305.643410399993,4306.644166699989,4306.644166699989,4311.447819499997,4311.447819499997,None,4307.644620866664,None,"['num_3', 'num_3', 'num_1']","[0.41738420000183396, 0.7290173999790568, 1.2173423999920487]",4311.447819499997,None,,,,,,,,,,,,,3,001,2022_May_21_1932,expDesign_,2021.2.3,None,
1,0,0,0,0,213,131,3321,232,1,4,0,4,0,0,27,27,27,,,,,,,,,,,,,4320.4551208999765,4321.455889799981,4321.455889799981,4326.259940599994,4326.259940599994,None,4322.45656996666,None,"['num_2', 'num_3', 'num_3']","[1.437035199982347, 2.269195299973944, 2.940559399983613]",4326.259940599994,None,,,,,,,,,,,,,3,001,2022_May_21_1932,expDesign_,2021.2.3,None,
1,0,0,0,1,212,323,2111,321,1,4,0,4,0,0,28,28,28,,,,,,,,,,,,,4335.251093799976,4336.25102929998,4336.25102929998,4341.054585199978,4341.054585199978,None,4337.252307666644,4340.070793299994,"['num_2', 'num_1', 'num_2']","[0.362381999992067, 0.8342868000036106, 1.3540432000008877]",4341.054585199978,None,,,,,,,,,,,,,3,001,2022_May_21_1932,expDesign_,2021.2.3,None,
1,1,1,0,1,313,132,3332,122,0,4,0,4,0,0,29,29,29,,,,,,,,,,,,,4350.061864899995,4351.063135099976,4351.0462347999855,4355.850169099984,4355.850169099984,None,4352.046963066652,None,"['num_3', 'num_1', 'num_3']","[0.310926499980269, 0.8389820999873336, 1.3028550999879371]",4355.850169099984,None,,,,,,,,,,,,,3,001,2022_May_21_1932,expDesign_,2021.2.3,None,
0,0,1,1,0,323,132,2321,312,0,4,0,4,0,0,30,30,30,,,,,,,,,,,,,4364.840570499975,4365.841392399976,4365.841392399976,4370.645440799999,4370.645440799999,None,4366.841694666658,None,"['num_1', 'num_2', 'num_3']","[0.4351930000120774, 1.0351032000035048, 1.8432494000007864]",4370.645440799999,None,,,,,,,,,,,,,3,001,2022_May_21_1932,expDesign_,2021.2.3,None,
1,1,1,0,0,123,212,3211,211,0,4,0,4,0,0,31,31,31,,,,,,,,,,,,,4379.652321699978,4380.6532267,4380.636641999998,4385.440957399987,4385.440957399987,None,4381.637342066653,4384.456465299998,"['num_3', 'num_1', 'num_2']","[0.3754083000239916, 0.7195906999986619, 1.2156117999984417]",4385.440957399987,None,,,,,,,,,,,,,3,001,2022_May_21_1932,expDesign_,2021.2.3,None,
1,1,0,1,0,312,133,3232,312,1,5,0,5,0,0,0,0,0,,,,,,,4440.267624999979,None,space,1.63686100000632,4440.267624999979,None,4442.936708499998,4443.937457199994,4443.937457199994,4448.7414096999855,4448.7414096999855,None,4444.938475966661,4447.75728239998,"['num_2', 'num_1', 'num_3']","[0.4991030000091996, 0.9313886000018101, 1.3474791000189725]",4448.7414096999855,None,4393.464857199986,None,space,36.76786359999096,4393.464857199986,None,,,,,,,3,001,2022_May_21_1932,expDesign_,2021.2.3,None,
0,1,0,0,1,313,122,3211,321,0,5,0,5,0,0,1,1,1,,,,,,,,,,,,,4457.731830499979,4458.733120599994,4458.733120599994,4463.536881799984,4463.536881799984,None,4459.73299886665,None,"['num_2', 'num_2', 'num_3']","[0.42346489999908954, 0.7037813999922946, 1.52764639997622]",4463.536881799984,None,,,,,,,,,,,,,3,001,2022_May_21_1932,expDesign_,2021.2.3,None,
1,0,1,1,1,321,232,2323,223,0,5,0,5,0,0,2,2,2,,,,,,,,,,,,,4472.544462199992,4473.544587499986,4473.527993099997,4478.331574799988,4478.331574799988,None,4474.528692566648,4477.348151199985,"['num_2', 'num_3', 'num_2']","[0.6290401000005659, 0.9485874999954831, 1.2524380999966525]",4478.331574799988,None,,,,,,,,,,,,,3,001,2022_May_21_1932,expDesign_,2021.2.3,None,
1,1,0,1,1,212,121,1331,212,1,5,0,5,0,0,3,3,3,,,,,,,,,,,,,4487.35566619999,4488.356382500002,4488.3398370999785,4493.143624799995,4493.143624799995,None,4489.341180866646,None,"['num_3', 'num_2', 'num_1']","[0.32086639999761246, 1.0252412999980152, 1.4326562999922317]",4493.143624799995,None,,,,,,,,,,,,,3,001,2022_May_21_1932,expDesign_,2021.2.3,None,
0,0,0,0,1,113,231,3321,321,0,5,0,5,0,0,4,4,4,,,,,,,,,,,,,4502.117679799994,4503.118375799997,4503.118375799997,4507.922708099999,4507.922708099999,None,4504.1190725666565,None,"['num_1', 'num_3', 'num_1']","[0.9496763999923132, 1.7018503000144847, 2.2060513000178616]",4507.922708099999,None,,,,,,,,,,,,,3,001,2022_May_21_1932,expDesign_,2021.2.3,None,
0,0,0,1,0,132,211,2223,231,0,5,0,5,0,0,5,5,5,,,,,,,,,,,,,4516.929456999991,4517.930249199999,4517.930249199999,4522.734227299981,4522.734227299981,None,4518.931131366644,None,"['num_2', 'num_1', 'num_3']","[0.38609260000521317, 0.7782901999889873, 1.2100815000012517]",4522.734227299981,None,,,,,,,,,,,,,3,001,2022_May_21_1932,expDesign_,2021.2.3,None,
0,0,0,1,1,231,123,1323,223,0,5,0,5,0,0,6,6,6,,,,,,,,,,,,,4531.741598599998,4532.7420767,4532.7420767,4537.546722899977,4537.546722899977,None,4533.7429103666545,None,"['num_1', 'num_1', 'num_3']","[0.7896817000000738, 1.1261940999829676, 1.7737357000005431]",4537.546722899977,None,,,,,,,,,,,,,3,001,2022_May_21_1932,expDesign_,2021.2.3,None,
0,0,1,0,0,312,121,3331,112,0,5,0,5,0,0,7,7,7,,,,,,,,,,,,,4546.536440600001,4547.537676399981,4547.537676399981,4552.341067599977,4552.341067599977,None,4548.538587066669,4551.357604599994,"['num_1', 'num_2', 'num_2']","[2.435168900003191, 2.9872162000101525, 5.083217600011267]",4552.341067599977,None,,,,,,,,,,,,,3,001,2022_May_21_1932,expDesign_,2021.2.3,None,
1,1,1,0,0,213,132,2311,132,1,5,0,5,0,0,8,8,8,,,,,,,,,,,,,4561.3487609,4562.349107499991,4562.332819199975,4567.136713099986,4567.136713099986,None,4563.3333768666525,None,"['num_2', 'num_3', 'num_1']","[0.3272498000005726, 0.6156573000189383, 1.1517100000055507]",4567.136713099986,None,,,,,,,,,,,,,3,001,2022_May_21_1932,expDesign_,2021.2.3,None,
1,1,0,0,1,213,121,3332,222,1,5,0,5,0,0,9,9,9,,,,,,,,,,,,,4576.127967699984,4577.128460499982,4577.128460499982,4581.931739399995,4581.931739399995,None,4578.12853156665,None,"['num_1', 'num_2', 'num_1']","[0.6366227999969851, 0.956913900008658, 1.4046073000063188]",4581.931739399995,None,,,,,,,,,,,,,3,001,2022_May_21_1932,expDesign_,2021.2.3,None,
0,1,1,0,0,131,313,1212,332,1,5,0,5,0,0,10,10,10,,,,,,,,,,,,,4590.940087199997,4591.939665299986,4591.939665299986,4596.743594999978,4596.743594999978,None,4592.940977466646,None,"['num_1', 'num_2', 'num_1']","[0.48102320000180043, 0.9766398000065237, 1.409011100011412]",4596.743594999978,None,,,,,,,,,,,,,3,001,2022_May_21_1932,expDesign_,2021.2.3,None,
0,0,1,0,1,312,223,2131,311,0,5,0,5,0,0,11,11,11,,,,,,,,,,,,,4605.734435599996,4606.73448839999,4606.717784399982,4611.522273299983,4611.522273299983,None,4607.718969966667,None,"['num_2', 'num_1', 'num_3']","[0.4860898999904748, 0.7900610999786295, 1.270043899974553]",4611.522273299983,None,,,,,,,,,,,,,3,001,2022_May_21_1932,expDesign_,2021.2.3,None,
0,1,0,1,0,231,123,3323,122,1,5,0,5,0,0,12,12,12,,,,,,,,,,,,,4620.546611699974,4621.5476394,4621.529950199998,4626.334280799987,4626.334280799987,None,4622.5311078666455,None,"['num_1', 'num_3', 'num_1']","[0.5461416999751236, 0.8740957999834791, 1.1780270999879576]",4626.334280799987,None,,,,,,,,,,,,,3,001,2022_May_21_1932,expDesign_,2021.2.3,None,
0,1,1,1,1,132,321,2211,133,1,5,0,5,0,0,13,13,13,,,,,,,,,,,,,4635.341118799988,4636.3422762999835,4636.3422762999835,4641.145827899978,4641.145827899978,None,4637.342758766641,None,"['num_2', 'num_3', 'num_1']","[0.5346071999811102, 0.8787594999885187, 1.2466787000012118]",4641.145827899978,None,,,,,,,,,,,,,3,001,2022_May_21_1932,expDesign_,2021.2.3,None,
1,0,0,0,0,233,321,3211,321,0,5,0,5,0,0,14,14,14,,,,,,,,,,,,,4650.136186299991,4651.137515199982,4651.137515199982,4655.941343599989,4655.941343599989,None,4652.138275966663,None,"['num_2', 'num_3', 'num_2']","[0.7473843999905512, 1.0825812999974005, 1.4031190999958199]",4655.941343599989,None,,,,,,,,,,,,,3,001,2022_May_21_1932,expDesign_,2021.2.3,None,
1,0,1,0,0,121,313,3212,111,1,5,0,5,0,0,15,15,15,,,,,,,,,,,,,4664.915067199996,4665.916238099977,4665.916238099977,4670.719736699975,4670.719736699975,None,4666.916785866666,None,"['num_3', 'num_1', 'num_3']","[1.0649234000011347, 1.8086489000124857, 2.6728311000042595]",4670.719736699975,None,,,,,,,,,,,,,3,001,2022_May_21_1932,expDesign_,2021.2.3,None,
1,0,1,1,0,313,231,2233,133,1,5,0,5,0,0,16,16,16,,,,,,,,,,,,,4679.727198299981,4680.727944899991,4680.727944899991,4685.531858099974,4685.531858099974,None,4681.728640666643,None,"['num_2', 'num_1', 'num_3']","[0.46843300000182353, 0.7487848000018857, 1.0929087999975309]",4685.531858099974,None,,,,,,,,,,,,,3,001,2022_May_21_1932,expDesign_,2021.2.3,None,
0,1,1,0,1,132,321,3231,212,1,5,0,5,0,0,17,17,17,,,,,,,,,,,,,4694.5561246,4695.556263199978,4695.53984089999,4700.344036099996,4700.344036099996,None,4696.540805566652,None,"['num_1', 'num_2', 'num_3']","[0.5198612000094727, 0.8799586000095587, 1.3042593999998644]",4700.344036099996,None,,,,,,,,,,,,,3,001,2022_May_21_1932,expDesign_,2021.2.3,None,
1,1,0,0,0,232,113,1312,122,0,5,0,5,0,0,18,18,18,,,,,,,,,,,,,4709.334317000001,4710.334649799974,4710.334649799974,4715.138951299974,4715.138951299974,None,4711.335829866646,4714.154634799983,"['num_2', 'num_3', 'num_2']","[0.5650631999887992, 0.8854288999864366, 1.2453311999852303]",4715.138951299974,None,,,,,,,,,,,,,3,001,2022_May_21_1932,expDesign_,2021.2.3,None,
0,1,0,0,0,322,131,2232,331,0,5,0,5,0,0,19,19,19,,,,,,,,,,,,,4724.129445400002,4725.130146499985,4725.130146499985,4729.933850299974,4729.933850299974,None,4726.130898366657,None,"['num_1', 'num_3', 'num_3']","[0.3703586999909021, 0.714429099985864, 1.1945350999885704]",4729.933850299974,None,,,,,,,,,,,,,3,001,2022_May_21_1932,expDesign_,2021.2.3,None,
1,0,1,0,1,212,123,3113,221,1,5,0,5,0,0,20,20,20,,,,,,,,,,,,,4738.958435999986,4739.958809199976,4739.942148099974,4744.746222299989,4744.746222299989,None,4740.94376436665,4743.762229399988,"['num_1', 'num_3', 'num_2']","[0.3258106999855954, 0.7500966999796219, 1.4618666999740526]",4744.746222299989,None,,,,,,,,,,,,,3,001,2022_May_21_1932,expDesign_,2021.2.3,None,
0,0,0,0,0,122,213,3331,123,0,5,0,5,0,0,21,21,21,,,,,,,,,,,,,4753.736582399986,4754.7374211999995,4754.7374211999995,4759.541047999985,4759.541047999985,None,4755.738169966648,None,"['num_1', 'num_2', 'num_1']","[0.02749419998144731, 1.834878599998774, 2.1952243999985512]",4759.541047999985,None,,,,,,,,,,,,,3,001,2022_May_21_1932,expDesign_,2021.2.3,None,
0,0,1,1,0,313,231,3213,122,0,5,0,5,0,0,22,22,22,,,,,,,,,,,,,4768.5317520999815,4769.532524099981,4769.532524099981,4774.336570099986,4774.336570099986,None,4770.53381456665,4773.352339099976,"['num_3', 'num_1', 'num_2']","[0.42371210001874715, 0.8236509000125807, 1.208110100007616]",4774.336570099986,None,,,,,,,,,,,,,3,001,2022_May_21_1932,expDesign_,2021.2.3,None,
1,1,1,1,1,231,323,3111,122,1,5,0,5,0,0,23,23,23,,,,,,,,,,,,,4783.328659999999,4784.3277790999855,4784.3277790999855,4789.131490699976,4789.131490699976,None,4785.3284383666505,None,"['num_1', 'num_3', 'num_2']","[0.5167981999984477, 0.8047656000126153, 1.1568474000087008]",4789.131490699976,None,,,,,,,,,,,,,3,001,2022_May_21_1932,expDesign_,2021.2.3,None,
1,0,0,1,1,321,112,2132,222,1,5,0,5,0,0,24,24,24,,,,,,,,,,,,,4798.155313399999,4799.156586899975,4799.139339799993,4803.94360519998,4803.94360519998,None,4800.140607266661,None,"['num_1', 'num_3', 'num_2']","[1.184427100000903, 1.5923883999930695, 1.8725627000094391]",4803.94360519998,None,,,,,,,,,,,,,3,001,2022_May_21_1932,expDesign_,2021.2.3,None,
1,0,0,0,1,131,312,1133,232,0,5,0,5,0,0,25,25,25,,,,,,,,,,,,,4812.934054699988,4813.934714199975,4813.934714199975,4818.7388842999935,4818.7388842999935,None,4814.936927066654,None,"['num_2', 'num_2', 'num_1']","[0.30955590002122335, 0.6214600999956019, 1.0215593000175431]",4818.7388842999935,None,,,,,,,,,,,,,3,001,2022_May_21_1932,expDesign_,2021.2.3,None,
1,0,0,1,0,313,132,2331,311,1,5,0,5,0,0,26,26,26,,,,,,,,,,,,,4827.712308499991,4828.713424299989,4828.713424299989,4833.51739969998,4833.51739969998,None,4829.7142496666675,None,"['num_2', 'num_1', 'num_3']","[0.507089899998391, 0.97053789999336, 1.3949026000045706]",4833.51739969998,None,,,,,,,,,,,,,3,001,2022_May_21_1932,expDesign_,2021.2.3,None,
0,1,1,1,0,312,131,3222,313,0,5,0,5,0,0,27,27,27,,,,,,,,,,,,,4842.524373699998,4843.5253504999855,4843.5253504999855,4848.328973800002,4848.328973800002,4841.542503499979,4844.526209866661,None,"['num_2', 'num_1', 'num_3']","[0.6790815000131261, 1.5114261000126135, 2.135376599995652]",4848.328973800002,4841.542503499979,,,,,,,,,,,,,3,001,2022_May_21_1932,expDesign_,2021.2.3,None,
0,1,0,1,1,112,323,1121,222,1,5,0,5,0,0,28,28,28,,,,,,,,,,,,,4857.337160299998,4858.336875899986,4858.336875899986,4863.141047099984,4863.141047099984,None,4859.337971466655,None,"['num_3', 'num_1', 'num_2']","[0.7073291999986395, 1.163094000017736, 1.5392911000235472]",4863.141047099984,None,,,,,,,,,,,,,3,001,2022_May_21_1932,expDesign_,2021.2.3,None,
0,0,1,1,1,312,123,2323,222,0,5,0,5,0,0,29,29,29,,,,,,,,,,,,,4872.131721499987,4873.132639599993,4873.132639599993,4877.936792399996,4877.936792399996,None,4874.132935666657,4876.952049999993,"['num_3', 'num_1', 'num_3']","[0.9595072999945842, 1.3756581999768969, 1.7993580999900587]",4877.936792399996,None,,,,,,,,,,,,,3,001,2022_May_21_1932,expDesign_,2021.2.3,None,
1,1,1,0,1,132,311,2123,322,1,5,0,5,0,0,30,30,30,,,,,,,,,,,,,4886.944112799974,4887.944132899982,4887.927693999984,4892.731609899987,4892.731609899987,None,4888.928053766667,None,"['num_2', 'num_3', 'num_1']","[0.3404003999894485, 0.7248474000080023, 1.6123946000006981]",4892.731609899987,None,,,,,,,,,,,,,3,001,2022_May_21_1932,expDesign_,2021.2.3,None,
1,1,1,1,0,232,121,1331,123,0,5,0,5,0,0,31,31,31,,,,,,,,,,,,,4901.738678900001,4902.739339299995,4902.739339299995,4907.5434602999885,4907.5434602999885,None,4903.740486366649,4906.5608944999985,"['num_1', 'num_3', 'num_1']","[1.8646498000016436, 2.560689000005368, 3.016813299997011]",4907.5434602999885,None,,,,,,,,,,,,,3,001,2022_May_21_1932,expDesign_,2021.2.3,None,
,,,,,,,,,,,,,,,,,,,,,,,,,,,,,,,,,,,,,,,,,,4915.551253199985,None,space,7.736858999996912,4915.551253199985,None,4923.323512599978,None,space,106.74010210001143,4923.323512599978,None,3,001,2022_May_21_1932,expDesign_,2021.2.3,None,
