iStimSide,iTargSide,iSideFirst,iStim,iGen,sylTarg,sylDist,sylCent,block.thisRepN,block.thisTrialN,block.thisN,block.thisIndex,trials.thisRepN,trials.thisTrialN,trials.thisN,trials.thisIndex,expStartText.started,expStartText.stopped,expStartKey.keys,expStartKey.rt,expStartKey.started,expStartKey.stopped,blockStartText.started,blockStartText.stopped,blockStartKey.keys,blockStartKey.rt,blockStartKey.started,blockStartKey.stopped,visCueText.started,visCueText.stopped,fixDot.started,fixDot.stopped,fixDotBlue.started,fixDotBlue.stopped,soundStim.started,soundStim.stopped,trialKey.keys,trialKey.rt,trialKey.started,trialKey.stopped,blockEndText.started,blockEndText.stopped,blockEndKey.keys,blockEndKey.rt,blockEndKey.started,blockEndKey.stopped,participant,session,date,expName,psychopyVersion,frameRate,
,,,,,,,,,,,,,,,,11.229569000000993,None,space,6.48296240000127,12.19719460000124,None,,,,,,,,,,,,,,,,,,,,,,,,,2,001,2022_May_11_1905,expDesign_,2021.2.3,59.877012615839384,
0,1,0,0,0,312,121,1311,0,0,0,0,0,0,0,0,,,,,,,28.710205200000928,None,space,1.761877299999469,28.710205200000928,None,31.529995099999724,32.529888400000345,32.513181899999836,37.31692690000091,37.31692690000091,None,33.51450155999974,None,"['num_2', 'num_2']","[0.6911603999997169, 1.1074057999994693]",37.31692690000091,None,,,,,,,2,001,2022_May_11_1905,expDesign_,2021.2.3,59.877012615839384,
1,0,1,0,1,212,133,1132,0,0,0,0,0,1,1,1,,,,,,,,,,,,,46.3248650000005,47.325300100001186,47.308554000001095,52.11241730000074,52.11241730000074,None,48.30926215999953,None,"['num_1', 'num_2']","[0.08806019999974524, 0.6800571999992826]",52.11241730000074,None,,,,,,,2,001,2022_May_11_1905,expDesign_,2021.2.3,59.877012615839384,
0,1,0,0,1,233,322,3212,0,0,0,0,0,2,2,2,,,,,,,,,,,,,61.120139599999675,62.11981960000048,62.103112200000396,66.90839150000102,66.90839150000102,None,63.10420865999968,None,"['num_3', 'num_3']","[0.20378049999999348, 2.395640300001105]",66.90839150000102,None,,,,,,,2,001,2022_May_11_1905,expDesign_,2021.2.3,59.877012615839384,
1,1,1,1,1,313,231,3233,0,0,0,0,0,3,3,3,,,,,,,,,,,,,75.9148712999995,76.9153452999999,76.9153452999999,81.71954350000124,81.70298680000087,None,77.91718186000125,80.73530370000117,"['num_3', 'num_1', 'num_3']","[0.8252148999999918, 1.5535129999989294, 2.2493328000000474]",81.70298680000087,None,,,,,,,2,001,2022_May_11_1905,expDesign_,2021.2.3,59.877012615839384,
0,0,0,0,0,122,211,1213,0,0,0,0,0,4,4,4,,,,,,,,,,,,,90.70977080000011,91.7111574999999,91.7111574999999,96.51464080000005,96.51464080000005,None,92.71158766000062,95.53081759999986,"['num_1', 'num_2', 'num_1']","[0.9657294999997248, 1.669870699999592, 2.3897161000004417]",96.51464080000005,None,,,,,,,2,001,2022_May_11_1905,expDesign_,2021.2.3,59.877012615839384,
0,1,1,0,0,113,232,2312,0,0,0,0,0,5,5,5,,,,,,,,,,,,,105.5224173000006,106.52295270000104,106.50631629999953,111.30970789999992,111.30970789999992,None,107.50690165999967,None,"['num_1', 'num_1', 'num_3']","[0.8424015000000509, 1.1946136000005936, 2.066559100001541]",111.30970789999992,None,,,,,,,2,001,2022_May_11_1905,expDesign_,2021.2.3,59.877012615839384,
1,1,0,1,1,131,212,1121,0,0,0,0,0,6,6,6,,,,,,,,,,,,,120.31688010000107,121.31802700000117,121.31802700000117,126.12182600000051,126.12182600000051,None,122.3186908600006,None,"['num_1', 'num_3', 'num_1']","[0.6058456000009755, 1.2622903999999835, 1.9661942000002455]",126.12182600000051,None,,,,,,,2,001,2022_May_11_1905,expDesign_,2021.2.3,59.877012615839384,
0,0,1,1,0,321,213,1323,0,0,0,0,0,7,7,7,,,,,,,,,,,,,135.12872770000104,136.12931620000018,136.11286850000033,140.9169481000008,140.9169481000008,None,137.1136131600002,None,"['num_3', 'num_2', 'num_1']","[0.9950322999993659, 1.5870402000000468, 2.211126599999261]",140.9169481000008,None,,,,,,,2,001,2022_May_11_1905,expDesign_,2021.2.3,59.877012615839384,
1,1,1,1,0,131,212,1222,0,0,0,0,0,8,8,8,,,,,,,,,,,,,149.92463450000105,150.92495080000117,150.90811910000048,155.71193250000033,155.71193250000033,None,151.90884116000106,154.72863890000008,"['num_1', 'num_2', 'num_1']","[1.047884999999951, 1.7522989000008238, 2.3923859000005905]",155.71193250000033,None,,,,,,,2,001,2022_May_11_1905,expDesign_,2021.2.3,59.877012615839384,
1,1,0,1,0,211,132,3133,0,0,0,0,0,9,9,9,,,,,,,,,,,,,164.70277850000093,165.7029805000002,165.7029805000002,170.50731149999956,170.50731149999956,None,166.70422506000122,169.5231904000011,"['num_2', 'num_1', 'num_1']","[0.6207844000000478, 1.1971298000007664, 1.7807735000005778]",170.50731149999956,None,,,,,,,2,001,2022_May_11_1905,expDesign_,2021.2.3,59.877012615839384,
1,0,0,1,1,323,231,2331,0,0,0,0,0,10,10,10,,,,,,,,,,,,,179.51441330000125,180.51542400000108,180.51542400000108,185.3188091000011,185.3188091000011,None,181.51602456000055,184.33543720000125,"['num_3', 'num_2', 'num_3']","[0.8093449999996665, 1.4654442999999446, 2.1211047999986476]",185.3188091000011,None,,,,,,,2,001,2022_May_11_1905,expDesign_,2021.2.3,59.877012615839384,
0,0,0,1,0,321,212,3213,0,0,0,0,0,11,11,11,,,,,,,,,,,,,194.3095317999996,195.3109784999997,195.3109784999997,200.1143759000006,200.1143759000006,None,196.31207695999964,None,"['num_3', 'num_2', 'num_1']","[0.9094843000002584, 1.5733321999996406, 2.18951289999859]",200.1143759000006,None,,,,,,,2,001,2022_May_11_1905,expDesign_,2021.2.3,59.877012615839384,
1,1,1,0,0,213,321,1212,0,0,0,0,0,12,12,12,,,,,,,,,,,,,209.12173460000122,210.1223716000004,210.10577560000092,214.90967490000003,214.90967490000003,None,211.1065372600011,None,"['num_2', 'num_1', 'num_3']","[1.0664097999997466, 1.8659163000011176, 2.6582447000000684]",214.90967490000003,None,,,,,,,2,001,2022_May_11_1905,expDesign_,2021.2.3,59.877012615839384,
1,0,0,0,1,331,212,1222,0,0,0,0,0,13,13,13,,,,,,,,,,,,,223.91636550000112,224.91747810000015,224.91747810000015,229.72156540000105,229.70490900000004,None,225.91840086000101,None,"['num_2', 'num_3', 'num_1']","[0.7512460999987525, 1.311508099999628, 1.919272600000113]",229.70490900000004,None,,,,,,,2,001,2022_May_11_1905,expDesign_,2021.2.3,59.877012615839384,
0,0,1,0,1,132,313,3123,0,0,0,0,0,14,14,14,,,,,,,,,,,,,238.69555430000037,239.69640770000115,239.69640770000115,244.50004160000026,244.50004160000026,None,240.6974465600002,243.51601389999996,"['num_1', 'num_3', 'num_2']","[0.37983429999985674, 2.0441405000001396, 2.803936000000249]",244.50004160000026,None,,,,,,,2,001,2022_May_11_1905,expDesign_,2021.2.3,59.877012615839384,
1,0,0,0,0,131,323,3131,0,0,0,0,0,15,15,15,,,,,,,,,,,,,253.50736340000003,254.50797620000048,254.50797620000048,259.3121241000008,259.2953594999999,None,255.50929315999983,None,"['num_1', 'num_3', 'num_1']","[0.6725150999991456, 1.3604117999984737, 2.3605111999986548]",259.2953594999999,None,,,,,,,2,001,2022_May_11_1905,expDesign_,2021.2.3,59.877012615839384,
0,0,1,0,0,212,131,3313,0,0,0,0,0,16,16,16,,,,,,,,,,,,,268.3022989000001,269.3034492000006,269.3034492000006,274.10690890000114,274.10690890000114,None,270.30449696000017,None,"['num_2', 'num_1', 'num_2']","[0.8610097000000678, 1.6928839000011067, 2.4452489000013884]",274.10690890000114,None,,,,,,,2,001,2022_May_11_1905,expDesign_,2021.2.3,59.877012615839384,
1,0,0,1,0,133,212,3111,0,0,0,0,0,17,17,17,,,,,,,,,,,,,283.1144808000008,284.1154705000008,284.1154705000008,288.9189344999995,288.9022180000011,None,285.1159086600006,None,"['num_1', 'num_2', 'num_2']","[1.0496587999987241, 1.7295122999985324, 2.4660617999998067]",288.9022180000011,None,,,,,,,2,001,2022_May_11_1905,expDesign_,2021.2.3,59.877012615839384,
0,0,1,1,1,212,123,1132,0,0,0,0,0,18,18,18,,,,,,,,,,,,,297.90981439999996,298.9102987999995,298.9102987999995,303.7144602999997,303.7144602999997,None,299.9112845599999,None,"['num_2', 'num_1', 'num_2']","[0.9094021000000794, 1.6456462999994983, 2.3815458999997645]",303.7144602999997,None,,,,,,,2,001,2022_May_11_1905,expDesign_,2021.2.3,59.877012615839384,
0,0,0,0,1,232,321,1222,0,0,0,0,0,19,19,19,,,,,,,,,,,,,312.7048082000001,313.7058900000011,313.7058900000011,318.50953219999974,318.50953219999974,None,314.7064102600003,317.52583369999957,"['num_2', 'num_3', 'num_2']","[0.7144544000002497, 1.466267499999958, 2.2021512999999686]",318.50953219999974,None,,,,,,,2,001,2022_May_11_1905,expDesign_,2021.2.3,59.877012615839384,
0,0,0,1,1,312,231,1332,0,0,0,0,0,20,20,20,,,,,,,,,,,,,327.5001138000007,328.5004485999998,328.5004485999998,333.3043154999996,333.3043154999996,None,329.50152346000016,None,"['num_3', 'num_2', 'num_1']","[0.8074574999991455, 1.3834806999984721, 2.015524499998719]",333.3043154999996,None,,,,,,,2,001,2022_May_11_1905,expDesign_,2021.2.3,59.877012615839384,
1,1,0,0,1,312,121,3221,0,0,0,0,0,21,21,21,,,,,,,,,,,,,342.32878960000016,343.32930339999984,343.3127457999999,348.1164327000006,348.1164327000006,None,344.31342336,347.1328967999998,"['num_3', 'num_1', 'num_2']","[0.459429700000328, 1.3713913999999932, 2.067436799999996]",348.1164327000006,None,,,,,,,2,001,2022_May_11_1905,expDesign_,2021.2.3,59.877012615839384,
1,0,1,0,0,131,312,1232,0,0,0,0,0,22,22,22,,,,,,,,,,,,,357.1235532999999,358.1244071000001,358.1078467999996,362.91189250000025,362.8949212999996,None,359.10873935999973,361.92846180000015,"['num_1', 'num_3', 'num_1']","[0.8810972999999649, 1.6248412000004464, 2.36940930000128]",362.8949212999996,None,,,,,,,2,001,2022_May_11_1905,expDesign_,2021.2.3,59.877012615839384,
1,1,0,0,0,132,321,1133,0,0,0,0,0,23,23,23,,,,,,,,,,,,,371.90259160000096,372.9033830999997,372.88646359999984,377.6903913999995,377.6903913999995,370.9027934000005,373.8874988600006,376.7062507999999,"['num_3', 'num_3', 'num_2']","[0.5016895000007935, 2.1734168999992107, 3.6852940999997372]",377.6903913999995,370.9027934000005,,,,,,,2,001,2022_May_11_1905,expDesign_,2021.2.3,59.877012615839384,
0,1,1,1,1,131,323,3133,0,0,0,0,0,24,24,24,,,,,,,,,,,,,386.69797050000125,387.6989184000013,387.6989184000013,392.5022315999995,392.5022315999995,385.71494130000065,388.6991945600008,None,"['num_1', 'num_3', 'num_1']","[1.0575882000011916, 1.6976365000009537, 2.3697611000006873]",392.5022315999995,385.71494130000065,,,,,,,2,001,2022_May_11_1905,expDesign_,2021.2.3,59.877012615839384,
0,1,0,1,1,212,131,2112,0,0,0,0,0,25,25,25,,,,,,,,,,,,,401.5095996,402.51002940000035,402.51002940000035,407.31402909999997,407.31402909999997,None,403.5109820599997,406.33000040000115,"['num_2', 'num_1', 'num_2']","[0.5657843999997567, 1.6537420999993628, 2.4614674000004015]",407.31402909999997,None,,,,,,,2,001,2022_May_11_1905,expDesign_,2021.2.3,59.877012615839384,
1,0,1,1,1,312,123,3111,0,0,0,0,0,26,26,26,,,,,,,,,,,,,416.32130400000096,417.32153649999964,417.30485390000104,422.1092370999995,422.1092370999995,None,418.30661426000063,None,"['num_1', 'num_2', 'num_3']","[0.6425028000012389, 1.5223703999999998, 2.274518900001567]",422.1092370999995,None,,,,,,,2,001,2022_May_11_1905,expDesign_,2021.2.3,59.877012615839384,
0,1,1,1,0,323,132,1131,0,0,0,0,0,27,27,27,,,,,,,,,,,,,431.13333890000104,432.13420700000097,432.1172724999997,436.92125430000124,436.92125430000124,None,433.118250260001,None,"['num_1', 'num_2', 'num_3']","[0.534609599999385, 1.2221828999990976, 2.078475399999661]",436.92125430000124,None,,,,,,,2,001,2022_May_11_1905,expDesign_,2021.2.3,59.877012615839384,
1,0,1,1,0,131,213,2221,0,0,0,0,0,28,28,28,,,,,,,,,,,,,445.9115760000004,446.9119389999996,446.9119389999996,451.7164659000009,451.7164659000009,None,447.91344516000083,450.73198650000086,"['num_1', 'num_3', 'num_1']","[1.4114410999991378, 2.2029774000002362, 3.019397399999434]",451.7164659000009,None,,,,,,,2,001,2022_May_11_1905,expDesign_,2021.2.3,59.877012615839384,
1,1,1,0,1,232,321,3332,0,0,0,0,0,29,29,29,,,,,,,,,,,,,460.72407589999966,461.7243993000011,461.70779980000043,466.5117774999999,466.4952387000012,None,462.7080204600012,None,"['num_3', 'num_2', 'num_3']","[1.3683412999998836, 2.0724322000005486, 2.848518700000568]",466.4952387000012,None,,,,,,,2,001,2022_May_11_1905,expDesign_,2021.2.3,59.877012615839384,
0,1,0,1,0,232,321,1133,0,0,0,0,0,30,30,30,,,,,,,,,,,,,475.50214340000093,476.50301070000023,476.50301070000023,481.3066854000008,481.3066854000008,474.5193188000012,477.50328436000075,480.3228837000006,"['num_2', 'num_3', 'num_2']","[0.9971175999999105, 1.7091194999993604, 2.4690652999997837]",481.3066854000008,474.5193188000012,,,,,,,2,001,2022_May_11_1905,expDesign_,2021.2.3,59.877012615839384,
0,1,1,0,1,323,231,3111,0,0,0,0,0,31,31,31,,,,,,,,,,,,,490.3141273000001,491.31479519999993,491.31479519999993,496.11835820000124,496.11835820000124,None,492.3155010600009,None,"['num_3', 'num_2', 'num_1']","[0.9853712999993149, 1.5936191999990115, 2.24943279999934]",496.11835820000124,None,,,,,,,2,001,2022_May_11_1905,expDesign_,2021.2.3,59.877012615839384,
0,1,1,1,1,312,231,2323,1,0,1,0,0,0,0,0,,,,,,,525.4422568000009,None,space,3.1173058999993373,525.4422568000009,None,529.5957008000005,530.5964698999996,530.5964698999996,535.4003024000012,535.3834681000008,None,531.5805691600004,None,"['num_2', 'num_1', 'num_2']","[0.9281053000013344, 1.7443574000008084, 2.4163710000011633]",535.3834681000008,None,504.1426064999996,None,space,11.264951599998312,504.1426064999996,None,2,001,2022_May_11_1905,expDesign_,2021.2.3,59.877012615839384,
1,1,0,0,1,211,323,2211,1,0,1,0,0,1,1,1,,,,,,,,,,,,,544.3907059000012,545.3917535,545.3917535,550.1951740000004,550.1951740000004,None,546.3924012600006,None,"['num_2', 'num_1', 'num_1']","[0.7003331000014441, 1.5003931000010198, 2.284413700001096]",550.1951740000004,None,,,,,,,2,001,2022_May_11_1905,expDesign_,2021.2.3,59.877012615839384,
0,0,0,0,0,332,123,1311,1,0,1,0,0,2,2,2,,,,,,,,,,,,,559.1856059000002,560.1862134000003,560.1862134000003,564.9906554999998,564.9906554999998,None,561.1874421600011,564.0062791,"['num_3', 'num_3', 'num_2']","[0.6490166000003228, 1.3290893000012147, 2.121029300000373]",564.9906554999998,None,,,,,,,2,001,2022_May_11_1905,expDesign_,2021.2.3,59.877012615839384,
1,0,1,1,0,232,121,1313,1,0,1,0,0,3,3,3,,,,,,,,,,,,,574.0000639999998,575.0152625999999,574.9986515,579.8021098999998,579.8021098999998,None,575.9991695600007,578.8181549000001,"['num_2', 'num_1', 'num_3']","[2.285758199999691, 3.1255423999991763, 3.925579499999003]",579.8021098999998,None,,,,,,,2,001,2022_May_11_1905,expDesign_,2021.2.3,59.877012615839384,
1,0,1,0,1,123,311,3131,1,0,1,0,0,4,4,4,,,,,,,,,,,,,588.7930780999995,589.7941322999995,589.7941322999995,594.5974192000012,594.5974192000012,None,590.7944438600013,None,"['num_1', 'num_2', 'num_3']","[0.786347700000988, 1.5145742000004248, 2.2745498000003863]",594.5974192000012,None,,,,,,,2,001,2022_May_11_1905,expDesign_,2021.2.3,59.877012615839384,
0,1,0,1,1,232,121,1112,1,0,1,0,0,5,5,5,,,,,,,,,,,,,603.6056320999996,604.6057746000006,604.5891308000009,609.3930514000003,609.3930514000003,None,605.5899896600009,608.4086217000004,"['num_2', 'num_3', 'num_2']","[1.078762299999653, 1.7504931000003126, 2.3984192999996594]",609.3930514000003,None,,,,,,,2,001,2022_May_11_1905,expDesign_,2021.2.3,59.877012615839384,
1,0,1,1,1,313,232,1321,1,0,1,0,0,6,6,6,,,,,,,,,,,,,618.3997359000005,619.4011666999995,619.4011666999995,624.2050720999996,624.2050720999996,None,620.4019869600003,None,"['num_3', 'num_1', 'num_3']","[1.034216899999592, 1.9064974000011716, 2.6664184000001114]",624.2050720999996,None,,,,,,,2,001,2022_May_11_1905,expDesign_,2021.2.3,59.877012615839384,
1,0,0,1,1,233,321,2133,1,0,1,0,0,7,7,7,,,,,,,,,,,,,633.1957956999995,634.1964793999996,634.1964793999996,639.0000636000004,639.0000636000004,None,635.1970337600002,638.0160802999999,"['num_2', 'num_3', 'num_3']","[0.975273300000481, 1.7833195000002888, 2.687575599999036]",639.0000636000004,None,,,,,,,2,001,2022_May_11_1905,expDesign_,2021.2.3,59.877012615839384,
0,1,0,0,0,331,213,1211,1,0,1,0,0,8,8,8,,,,,,,,,,,,,648.0079951000007,649.008740700001,648.9916809999995,653.7951764000009,653.7951764000009,None,649.99217276,None,"['num_2', 'num_3', 'num_3']","[0.40443559999948775, 1.51634759999979, 2.3243524999998044]",653.7951764000009,None,,,,,,,2,001,2022_May_11_1905,expDesign_,2021.2.3,59.877012615839384,
1,1,1,1,1,221,332,3232,1,0,1,0,0,9,9,9,,,,,,,,,,,,,662.7859053000011,663.7864047000003,663.7864047000003,668.5905891000002,668.5905891000002,None,664.787124860001,667.6065940000008,"['num_2', 'num_2', 'num_3']","[1.2166866000006848, 1.6168317000010575, 2.6650538000012602]",668.5905891000002,None,,,,,,,2,001,2022_May_11_1905,expDesign_,2021.2.3,59.877012615839384,
0,1,1,0,0,212,131,3123,1,0,1,0,0,10,10,10,,,,,,,,,,,,,677.5977586999998,678.5987860000005,678.5987860000005,683.4020811000009,683.4020811000009,None,679.5994817600009,682.4180637000009,"['num_2', 'num_1', 'num_2']","[2.085767799999303, 2.9253869999993185, 3.725423399999272]",683.4020811000009,None,,,,,,,2,001,2022_May_11_1905,expDesign_,2021.2.3,59.877012615839384,
0,0,0,1,1,232,321,3223,1,0,1,0,0,11,11,11,,,,,,,,,,,,,692.4098297,693.4102175999997,693.3942984000005,698.1974688000009,698.1974688000009,None,694.3943557600002,None,"['num_2', 'num_3', 'num_2']","[1.2658819999996922, 2.018065899999783, 2.801906799999415]",698.1974688000009,None,,,,,,,2,001,2022_May_11_1905,expDesign_,2021.2.3,59.877012615839384,
1,0,0,0,0,232,313,3313,1,0,1,0,0,12,12,12,,,,,,,,,,,,,707.1880622000008,708.1887567000012,708.1887567000012,712.9925689000011,712.9925689000011,None,709.1893686600002,None,"['num_2', 'num_3', 'num_2']","[0.5666676000000734, 1.1109790000009525, 1.7108347000012145]",712.9925689000011,None,,,,,,,2,001,2022_May_11_1905,expDesign_,2021.2.3,59.877012615839384,
0,0,0,1,0,232,123,1221,1,0,1,0,0,13,13,13,,,,,,,,,,,,,721.9999472,723.0005295999999,723.0005295999999,727.8046816000005,727.7880033000001,None,724.0018633599999,None,"['num_2', 'num_3', 'num_2']","[1.1954688999994687, 1.9872885000004317, 2.763442400000713]",727.7880033000001,None,,,,,,,2,001,2022_May_11_1905,expDesign_,2021.2.3,59.877012615839384,
1,0,0,0,1,323,212,3132,1,0,1,0,0,14,14,14,,,,,,,,,,,,,736.7785080000012,737.7791938999999,737.7791938999999,742.5830280000009,742.5830280000009,None,738.7802405600002,741.5997466000008,"['num_3', 'num_2', 'num_3']","[0.7764408999992156, 1.5363027999992482, 2.3285003999990295]",742.5830280000009,None,,,,,,,2,001,2022_May_11_1905,expDesign_,2021.2.3,59.877012615839384,
0,0,1,1,0,313,231,2213,1,0,1,0,0,15,15,15,,,,,,,,,,,,,751.5903658000007,752.5911269999997,752.5911269999997,757.3948349000002,757.3948349000002,None,753.5922013599999,None,"['num_3', 'num_1', 'num_3']","[1.268642600000021, 1.932485799999995, 2.636584900001253]",757.3948349000002,None,,,,,,,2,001,2022_May_11_1905,expDesign_,2021.2.3,59.877012615839384,
1,1,0,1,1,213,321,3322,1,0,1,0,0,16,16,16,,,,,,,,,,,,,766.4024614000009,767.4031166000004,767.3864522000003,772.1902802000004,772.1902802000004,None,768.3871571599999,771.2058820000002,"['num_2', 'num_3', 'num_1']","[1.3689956999987771, 2.3535534999991796, 3.225083299999824]",772.1902802000004,None,,,,,,,2,001,2022_May_11_1905,expDesign_,2021.2.3,59.877012615839384,
0,0,1,0,1,332,121,3312,1,0,1,0,0,17,17,17,,,,,,,,,,,,,781.1971537000009,782.1985122000006,782.1985122000006,787.0019107999997,787.0019107999997,None,783.19889226,None,"['num_3', 'num_3', 'num_2']","[1.4215686000006826, 2.101539100000082, 3.477599100000589]",787.0019107999997,None,,,,,,,2,001,2022_May_11_1905,expDesign_,2021.2.3,59.877012615839384,
0,0,1,1,1,313,132,1213,1,0,1,0,0,18,18,18,,,,,,,,,,,,,795.9927833000002,796.9934615000002,796.9934615000002,801.7969375000011,801.7969375000011,None,797.9944056600003,800.8133350000007,"['num_3', 'num_1', 'num_3']","[1.154347499999858, 1.874393299998701, 2.5945178999991185]",801.7969375000011,None,,,,,,,2,001,2022_May_11_1905,expDesign_,2021.2.3,59.877012615839384,
1,1,1,0,0,123,211,3223,1,0,1,0,0,19,19,19,,,,,,,,,,,,,810.8046327000011,811.8055703999999,811.7887031999999,816.5925463000003,816.5925463000003,None,812.7895202599999,None,"['num_1', 'num_2', 'num_3']","[0.9827908000006573, 1.4708608999990247, 2.014756099999431]",816.5925463000003,None,,,,,,,2,001,2022_May_11_1905,expDesign_,2021.2.3,59.877012615839384,
1,1,0,1,0,122,213,1113,1,0,1,0,0,20,20,20,,,,,,,,,,,,,825.5996730999996,826.6004114000007,826.6004114000007,831.4043676000001,831.4043676000001,None,827.60120926,None,"['num_1', 'num_2', 'num_2']","[1.5229036999990058, 2.2510402999996586, 2.9791737999985344]",831.4043676000001,None,,,,,,,2,001,2022_May_11_1905,expDesign_,2021.2.3,59.877012615839384,
1,0,0,1,0,323,132,1113,1,0,1,0,0,21,21,21,,,,,,,,,,,,,840.4121694000005,841.4125495999997,841.3957213000012,846.1994682000004,846.1994682000004,None,842.3967678600008,845.2152901000009,"['num_3', 'num_2', 'num_3']","[0.5599325000002864, 1.3597269000001688, 2.007910099999208]",846.1994682000004,None,,,,,,,2,001,2022_May_11_1905,expDesign_,2021.2.3,59.877012615839384,
0,1,0,0,1,231,323,3111,1,0,1,0,0,22,22,22,,,,,,,,,,,,,855.1902262000003,856.1909587999999,856.1909587999999,860.9951328000006,860.9951328000006,None,857.1914790600009,None,"['num_2', 'num_3', 'num_1']","[0.8122462999999698, 1.5642019999995682, 2.6841457999998966]",860.9951328000006,None,,,,,,,2,001,2022_May_11_1905,expDesign_,2021.2.3,59.877012615839384,
1,1,1,0,1,313,132,2133,1,0,1,0,0,23,23,23,,,,,,,,,,,,,869.9852330000012,870.9862098000012,870.9862098000012,875.790127100001,875.790127100001,None,871.9868602600005,None,"['num_3', 'num_1', 'num_3']","[0.7932187999995222, 1.6413543999988178, 2.4251012000004266]",875.790127100001,None,,,,,,,2,001,2022_May_11_1905,expDesign_,2021.2.3,59.877012615839384,
0,0,0,0,1,121,232,1331,1,0,1,0,0,24,24,24,,,,,,,,,,,,,884.7973751999998,885.7978163999996,885.7978163999996,890.6019815,890.5852663000005,None,886.7987448600003,None,"['num_2', 'num_3', 'num_2']","[1.566002400000798, 2.293926600001214, 3.005665200000294]",890.5852663000005,None,,,,,,,2,001,2022_May_11_1905,expDesign_,2021.2.3,59.877012615839384,
0,1,1,0,1,321,213,3121,1,0,1,0,0,25,25,25,,,,,,,,,,,,,899.6090987999996,900.609961600001,900.5934182000001,905.3965098999997,905.3965098999997,None,901.5941523600001,904.4139159999995,"['num_3', 'num_2', 'num_1']","[0.7390298999998777, 1.283066100000724, 1.7948931999999331]",905.3965098999997,None,,,,,,,2,001,2022_May_11_1905,expDesign_,2021.2.3,59.877012615839384,
0,0,1,0,0,221,313,3133,1,0,1,0,0,26,26,26,,,,,,,,,,,,,914.3873705999995,915.3884775999995,915.3884775999995,920.1921113000008,920.1921113000008,None,916.3894590599999,None,"['num_2', 'num_2', 'num_1']","[0.7831011999987822, 1.0957689999995637, 1.6869891999995161]",920.1921113000008,None,,,,,,,2,001,2022_May_11_1905,expDesign_,2021.2.3,59.877012615839384,
0,1,1,1,0,121,232,3332,1,0,1,0,0,27,27,27,,,,,,,,,,,,,929.2163268000004,930.2171097999999,930.2005131000005,935.0041207000013,935.0041207000013,None,931.2009829599998,None,"['num_1', 'num_2', 'num_1']","[0.619323599999916, 1.3070958000007522, 2.011053100000936]",935.0041207000013,None,,,,,,,2,001,2022_May_11_1905,expDesign_,2021.2.3,59.877012615839384,
1,0,1,0,0,322,131,3113,1,0,1,0,0,28,28,28,,,,,,,,,,,,,943.9948796999997,944.9959572999996,944.9959572999996,949.7994662000001,949.7827224000011,None,945.9964329600012,None,"['num_3', 'num_2', 'num_2']","[1.000391399998989, 1.7444267999999283, 2.168495799998709]",949.7827224000011,None,,,,,,,2,001,2022_May_11_1905,expDesign_,2021.2.3,59.877012615839384,
1,1,1,1,0,123,232,2221,1,0,1,0,0,29,29,29,,,,,,,,,,,,,958.7730542000008,959.7740979999999,959.7740979999999,964.5779364999999,964.5779364999999,None,960.7747907600011,963.5939022000002,"['num_1', 'num_2', 'num_3']","[0.7413673999999446, 1.2691350000004604, 1.901141500000449]",964.5779364999999,None,,,,,,,2,001,2022_May_11_1905,expDesign_,2021.2.3,59.877012615839384,
0,1,0,1,0,131,213,3232,1,0,1,0,0,30,30,30,,,,,,,,,,,,,973.5853041999999,974.5861170999997,974.5861170999997,979.3898356999998,979.3898356999998,None,975.5869137600008,None,"['num_1', 'num_3', 'num_1']","[1.8733340999988286, 2.5213179999991553, 3.2009515999998257]",979.3898356999998,None,,,,,,,2,001,2022_May_11_1905,expDesign_,2021.2.3,59.877012615839384,
1,1,0,0,0,212,323,3313,1,0,1,0,0,31,31,31,,,,,,,,,,,,,988.3968848000004,989.3979923999996,989.3979923999996,994.2015339999998,994.2015339999998,None,990.3990292599998,None,"['num_3', 'num_1', 'num_3']","[0.7177740999995876, 1.3816891999995278, 2.0457105999994383]",994.2015339999998,None,,,,,,,2,001,2022_May_11_1905,expDesign_,2021.2.3,59.877012615839384,
,,,,,,,,,,,,,,,,,,,,,,1177.1318708,None,space,1.707552099998793,1177.1318708,None,,,,,,,,,,,,,1002.2264191000013,None,space,164.87632309999935,1002.2264191000013,None,,,,,,,
