iStimSide,iTargSide,iSideFirst,iStim,iGen,sylTarg,sylDist,sylCent,block.thisRepN,block.thisTrialN,block.thisN,block.thisIndex,trials.thisRepN,trials.thisTrialN,trials.thisN,trials.thisIndex,expStartText.started,expStartText.stopped,expStartKey.keys,expStartKey.rt,expStartKey.started,expStartKey.stopped,blockStartText.started,blockStartText.stopped,blockStartKey.keys,blockStartKey.rt,blockStartKey.started,blockStartKey.stopped,visCueText.started,visCueText.stopped,fixDot.started,fixDot.stopped,fixDotBlue.started,fixDotBlue.stopped,soundStim.started,soundStim.stopped,trialKey.keys,trialKey.rt,trialKey.started,trialKey.stopped,blockEndText.started,blockEndText.stopped,blockEndKey.keys,blockEndKey.rt,blockEndKey.started,blockEndKey.stopped,expEndText.started,expEndText.stopped,expEndKey.keys,expEndKey.rt,expEndKey.started,expEndKey.stopped,participant,session,date,expName,psychopyVersion,frameRate,
,,,,,,,,,,,,,,,,15.084213400001317,None,space,22.58309999999983,16.034409899999446,None,,,,,,,,,,,,,,,,,,,,,,,,,,,,,,,2,001,2022_May_11_1950,expDesign_,2021.2.3,59.876438981121865,
0,1,1,1,0,313,232,3331,4,0,4,0,0,0,0,0,,,,,,,48.643841000000975,None,space,1.253966300002503,48.643841000000975,None,50.96280350000234,51.96315859999959,51.94671510000262,56.7503300999997,56.7503300999997,None,52.946971830001715,55.766776200001914,"['num_3', 'num_1', 'num_3']","[0.5793580999998085, 1.1396131000001333, 1.651616399998602]",56.7503300999997,None,,,,,,,,,,,,,2,001,2022_May_11_1950,expDesign_,2021.2.3,59.876438981121865,
1,0,0,0,0,231,123,1113,4,0,4,0,0,1,1,1,,,,,,,,,,,,,65.75800850000087,66.75843990000067,66.7419047000003,71.54551250000077,71.54551250000077,None,67.74275962999964,None,"['num_2', 'num_3', 'num_1']","[0.7844621000003826, 1.384389700000611, 2.2243100000014238]",71.54551250000077,None,,,,,,,,,,,,,2,001,2022_May_11_1950,expDesign_,2021.2.3,59.876438981121865,
1,1,1,0,0,132,323,1112,4,0,4,0,0,2,2,2,,,,,,,,,,,,,80.5369498,81.53701750000255,81.52007220000087,86.32446660000278,86.32446660000278,None,82.52130863000203,None,"['num_1', 'num_3', 'num_2']","[1.1097391000002972, 1.741433399998641, 2.517362700000376]",86.32446660000278,None,,,,,,,,,,,,,2,001,2022_May_11_1950,expDesign_,2021.2.3,59.876438981121865,
1,0,1,0,1,223,331,1222,4,0,4,0,0,3,3,3,,,,,,,,,,,,,95.34875970000212,96.34911909999937,96.33219090000057,101.13607030000276,101.13607030000276,94.34864390000075,97.33283143000081,None,"['num_2', 'num_2', 'num_3']","[0.8897193000011612, 1.4176532000019506, 1.9696852000015497]",101.13607030000276,94.34864390000075,,,,,,,,,,,,,2,001,2022_May_11_1950,expDesign_,2021.2.3,59.876438981121865,
1,0,1,1,1,112,323,3212,4,0,4,0,0,4,4,4,,,,,,,,,,,,,110.1433947000005,111.1439575000004,111.1439575000004,115.94782430000123,115.94782430000123,None,112.14530212999962,114.96370200000092,"['num_1', 'num_1', 'num_2']","[0.5980264999998326, 1.1575382000009995, 1.7820375000010245]",115.94782430000123,None,,,,,,,,,,,,,2,001,2022_May_11_1950,expDesign_,2021.2.3,59.876438981121865,
0,1,0,1,0,313,232,3322,4,0,4,0,0,5,5,5,,,,,,,,,,,,,124.95576749999964,125.95595180000237,125.93939600000158,130.74334880000242,130.74334880000242,None,126.94016703000234,None,"['num_3', 'num_1', 'num_3']","[1.3623544999973092, 2.1225993000007293, 2.906775999999809]",130.74334880000242,None,,,,,,,,,,,,,2,001,2022_May_11_1950,expDesign_,2021.2.3,59.876438981121865,
0,1,0,1,1,213,121,3233,4,0,4,0,0,6,6,6,,,,,,,,,,,,,139.75028569999995,140.75125610000032,140.75125610000032,145.55512230000022,145.55512230000022,None,141.75197833000055,None,"['num_3', 'num_1', 'num_3']","[1.1666932999978599, 2.0705812999985937, 4.030645099999674]",145.55512230000022,None,,,,,,,,,,,,,2,001,2022_May_11_1950,expDesign_,2021.2.3,59.876438981121865,
1,0,0,1,1,123,312,2321,4,0,4,0,0,7,7,7,,,,,,,,,,,,,154.56216810000114,155.5630732000027,155.54646800000046,160.3503976000029,160.3503976000029,None,156.54705933000076,None,"['num_1', 'num_2', 'num_3']","[0.6835471999984293, 1.2993318000008003, 2.091372999999294]",160.3503976000029,None,,,,,,,,,,,,,2,001,2022_May_11_1950,expDesign_,2021.2.3,59.876438981121865,
1,0,1,0,0,132,323,1311,4,0,4,0,0,8,8,8,,,,,,,,,,,,,169.34120500000063,170.3419642000008,170.3419642000008,175.14535780000006,175.14535780000006,None,171.34248683000186,None,"['num_1', 'num_3', 'num_2']","[0.6565570999991905, 1.288357500001439, 1.9527366000002075]",175.14535780000006,None,,,,,,,,,,,,,2,001,2022_May_11_1950,expDesign_,2021.2.3,59.876438981121865,
0,1,1,1,1,123,231,2321,4,0,4,0,0,9,9,9,,,,,,,,,,,,,184.11911150000014,185.12012590000086,185.12012590000086,189.9241656000013,189.9241656000013,None,186.12081313000016,None,"['num_1', 'num_2', 'num_3']","[1.237637199999881, 2.0054625000011583, 2.6699526000011247]",189.9241656000013,None,,,,,,,,,,,,,2,001,2022_May_11_1950,expDesign_,2021.2.3,59.876438981121865,
0,0,1,1,0,233,312,3113,4,0,4,0,0,10,10,10,,,,,,,,,,,,,198.9484728000025,199.94870920000176,199.9318514000006,204.73591790000137,204.73591790000137,197.94810470000084,200.93277423000035,203.7522596000017,"['num_2', 'num_3', 'num_3']","[1.1860190000006696, 1.889826999999059, 2.5540222999989055]",204.73591790000137,197.94810470000084,,,,,,,,,,,,,2,001,2022_May_11_1950,expDesign_,2021.2.3,59.876438981121865,
0,0,1,1,1,212,323,3311,4,0,4,0,0,11,11,11,,,,,,,,,,,,,213.7429817000011,214.74398080000174,214.74398080000174,219.54780870000104,219.54780870000104,None,215.74475793000164,218.56347800000003,"['num_2', 'num_1', 'num_2']","[1.2939159000015934, 2.021886700000323, 2.686286200001632]",219.54780870000104,None,,,,,,,,,,,,,2,001,2022_May_11_1950,expDesign_,2021.2.3,59.876438981121865,
1,1,0,1,0,231,123,1231,4,0,4,0,0,12,12,12,,,,,,,,,,,,,228.5557402000013,229.55556559999968,229.53913340000145,234.34318490000078,234.34318490000078,None,230.53995913000034,None,"['num_2', 'num_3', 'num_1']","[0.9865591999987373, 1.6106497000000672, 2.546846599998389]",234.34318490000078,None,,,,,,,,,,,,,2,001,2022_May_11_1950,expDesign_,2021.2.3,59.876438981121865,
1,1,0,0,0,323,132,2121,4,0,4,0,0,13,13,13,,,,,,,,,,,,,243.3501028000028,244.35104910000155,244.35104910000155,249.15488950000145,249.15488950000145,None,245.3518269299995,248.17075169999953,"['num_3', 'num_1', 'num_2']","[0.878699000000779, 1.5747899000016332, 2.238833400002477]",249.15488950000145,None,,,,,,,,,,,,,2,001,2022_May_11_1950,expDesign_,2021.2.3,59.876438981121865,
1,1,1,0,1,231,313,2311,4,0,4,0,0,14,14,14,,,,,,,,,,,,,258.1293203999994,259.1296046000025,259.1296046000025,263.93402910000077,263.93402910000077,None,260.13033303000265,None,"['num_2', 'num_3', 'num_1']","[0.7559035000012955, 1.37156590000086, 2.0115666999990935]",263.93402910000077,None,,,,,,,,,,,,,2,001,2022_May_11_1950,expDesign_,2021.2.3,59.876438981121865,
1,1,1,1,0,212,121,3222,4,0,4,0,0,15,15,15,,,,,,,,,,,,,272.9410615000015,273.94163160000244,273.94163160000244,278.7452235000019,278.7452235000019,None,274.942304530002,277.7617691000014,"['num_2', 'num_1', 'num_2']","[1.136469399996713, 1.7042961999977706, 2.216661299997213]",278.7452235000019,None,,,,,,,,,,,,,2,001,2022_May_11_1950,expDesign_,2021.2.3,59.876438981121865,
1,0,1,1,0,312,231,1232,4,0,4,0,0,16,16,16,,,,,,,,,,,,,287.73583150000195,288.73651729999983,288.73651729999983,293.54070409999986,293.54070409999986,None,289.7372399299995,None,"['num_2', 'num_3', 'num_1']","[0.8607511000009254, 1.508867000000464, 2.23644559999957]",293.54070409999986,None,,,,,,,,,,,,,2,001,2022_May_11_1950,expDesign_,2021.2.3,59.876438981121865,
0,0,0,1,0,313,221,2131,4,0,4,0,0,17,17,17,,,,,,,,,,,,,302.54813520000243,303.548847500002,303.548847500002,308.3523822999996,308.3523822999996,None,304.5495012300009,None,"['num_2', 'num_2', 'num_1']","[0.7614514999986568, 1.2091586999995343, 1.8250573000004806]",308.3523822999996,None,,,,,,,,,,,,,2,001,2022_May_11_1950,expDesign_,2021.2.3,59.876438981121865,
1,0,0,1,0,221,312,3313,4,0,4,0,0,18,18,18,,,,,,,,,,,,,317.34323570000197,318.3438511000022,318.3438511000022,323.14746260000175,323.14746260000175,None,319.34442173000133,None,"['num_2', 'num_2', 'num_1']","[0.7102598000019498, 1.1421819999995932, 1.662592600001517]",323.14746260000175,None,,,,,,,,,,,,,2,001,2022_May_11_1950,expDesign_,2021.2.3,59.876438981121865,
1,1,0,0,1,121,313,3331,4,0,4,0,0,19,19,19,,,,,,,,,,,,,332.1550483000028,333.15598800000225,333.13916280000194,337.94301950000226,337.94301950000226,None,334.1401922300021,336.9587320999999,"['num_1', 'num_2', 'num_1']","[1.2188095999990765, 1.7947093000002496, 2.3384272000002966]",337.94301950000226,None,,,,,,,,,,,,,2,001,2022_May_11_1950,expDesign_,2021.2.3,59.876438981121865,
1,1,0,1,1,232,313,1112,4,0,4,0,0,20,20,20,,,,,,,,,,,,,346.95005049999963,347.95035140000255,347.95035140000255,352.75454300000274,352.75454300000274,None,348.95199903000247,None,"['num_2', 'num_3', 'num_2']","[1.0948806000014883, 1.711208100001386, 2.3426742000010563]",352.75454300000274,None,,,,,,,,,,,,,2,001,2022_May_11_1950,expDesign_,2021.2.3,59.876438981121865,
0,1,0,0,1,213,132,2312,4,0,4,0,0,21,21,21,,,,,,,,,,,,,361.74557020000066,362.74638510000295,362.74638510000295,367.55005540000275,367.55005540000275,None,363.74688653000266,None,"['num_2', 'num_1', 'num_3']","[1.5074794000029215, 2.1797866000015347, 2.8434550000019954]",367.55005540000275,None,,,,,,,,,,,,,2,001,2022_May_11_1950,expDesign_,2021.2.3,59.876438981121865,
1,0,0,0,1,132,313,2322,4,0,4,0,0,22,22,22,,,,,,,,,,,,,376.5402671000011,377.5413002000023,377.5413002000023,382.34517250000135,382.34517250000135,None,378.5420172299993,381.36151600000085,"['num_1', 'num_3', 'num_2']","[0.6807582000001275, 1.320374199996877, 1.8884417999979632]",382.34517250000135,None,,,,,,,,,,,,,2,001,2022_May_11_1950,expDesign_,2021.2.3,59.876438981121865,
0,0,1,0,0,323,131,1122,4,0,4,0,0,23,23,23,,,,,,,,,,,,,391.33575230000133,392.33634350000284,392.33634350000284,397.1404748999994,397.1404748999994,None,393.3374041300005,None,"['num_1', 'num_3', 'num_2']","[0.997086200000922, 1.6609794000032707, 2.3491499000010663]",397.1404748999994,None,,,,,,,,,,,,,2,001,2022_May_11_1950,expDesign_,2021.2.3,59.876438981121865,
0,1,1,0,0,132,221,3133,4,0,4,0,0,24,24,24,,,,,,,,,,,,,406.14746800000285,407.14850650000153,407.14850650000153,411.9527503999998,411.9527503999998,None,408.1490592300026,410.968050200001,"['num_1', 'num_3', 'num_2']","[0.7847067000002426, 1.4408803999976953, 2.0806363000010606]",411.9527503999998,None,,,,,,,,,,,,,2,001,2022_May_11_1950,expDesign_,2021.2.3,59.876438981121865,
0,0,0,0,0,131,212,1122,4,0,4,0,0,25,25,25,,,,,,,,,,,,,420.96006240000133,421.9603583999997,421.9435685000026,426.7474825999998,426.7474825999998,None,422.9445111300003,None,"['num_1', 'num_3', 'num_1']","[0.05387920000066515, 0.6779185999985202, 1.42201230000137]",426.7474825999998,None,,,,,,,,,,,,,2,001,2022_May_11_1950,expDesign_,2021.2.3,59.876438981121865,
0,1,0,0,0,321,132,1121,4,0,4,0,0,26,26,26,,,,,,,,,,,,,435.75492490000033,436.7555241000009,436.73859880000236,441.5425819000011,441.5425819000011,None,437.73960783,440.55861390000064,"['num_3', 'num_2', 'num_1']","[1.4352079999989655, 2.042712599999504, 2.6588680999993812]",441.5425819000011,None,,,,,,,,,,,,,2,001,2022_May_11_1950,expDesign_,2021.2.3,59.876438981121865,
1,1,1,1,1,321,213,3123,4,0,4,0,0,27,27,27,,,,,,,,,,,,,450.54971790000127,451.5504604000016,451.5504604000016,456.3543169000004,456.3543169000004,None,452.55128993000034,455.3704230000003,"['num_3', 'num_2', 'num_1']","[0.5349668999988353, 1.1029745999985607, 1.7269807999982731]",456.3543169000004,None,,,,,,,,,,,,,2,001,2022_May_11_1950,expDesign_,2021.2.3,59.876438981121865,
0,0,1,0,1,232,321,2112,4,0,4,0,0,28,28,28,,,,,,,,,,,,,465.3448664000025,466.34664690000136,466.34664690000136,471.1496671999994,471.1496671999994,None,467.3467817299999,None,"['num_2', 'num_3', 'num_2']","[0.8440216000017244, 1.3878440000007686, 1.883943700002419]",471.1496671999994,None,,,,,,,,,,,,,2,001,2022_May_11_1950,expDesign_,2021.2.3,59.876438981121865,
0,0,0,1,1,313,232,1212,4,0,4,0,0,29,29,29,,,,,,,,,,,,,480.1402779000018,481.1412044000026,481.1412044000026,485.94478750000053,485.94478750000053,None,482.14200293000175,None,"['num_3', 'num_1', 'num_3']","[0.7685810000002675, 1.488887400002568, 2.1365279000019655]",485.94478750000053,None,,,,,,,,,,,,,2,001,2022_May_11_1950,expDesign_,2021.2.3,59.876438981121865,
0,0,0,0,1,323,131,2112,4,0,4,0,0,30,30,30,,,,,,,,,,,,,494.93566700000156,495.93677310000203,495.93677310000203,500.7403919999997,500.7403919999997,None,496.9372145299996,None,"['num_3', 'num_2', 'num_3']","[1.0525843000032182, 1.836973900000885, 2.5248564000030456]",500.7403919999997,None,,,,,,,,,,,,,2,001,2022_May_11_1950,expDesign_,2021.2.3,59.876438981121865,
0,1,1,0,1,121,312,1123,4,0,4,0,0,31,31,31,,,,,,,,,,,,,509.74732439999934,510.7482041000003,510.7482041000003,515.5521970000009,515.5354681000026,None,511.74916803000013,None,"['num_1', 'num_2', 'num_1']","[1.2581118000016431, 1.777806199999759, 2.2339965000028315]",515.5354681000026,None,,,,,,,,,,,,,2,001,2022_May_11_1950,expDesign_,2021.2.3,59.876438981121865,
0,0,1,0,0,123,332,1222,5,0,5,0,0,0,0,0,,,,,,,549.8800107999996,None,space,1.769160899999406,549.8800107999996,None,552.6820372000002,553.6826704000014,553.6826704000014,558.4862649000024,558.4862649000024,None,554.6835426300015,None,"['num_1', 'num_2', 'num_3']","[0.5550987000024179, 1.0034684000020206, 1.5070742999996583]",558.4862649000024,None,523.5762240000004,None,space,16.273111799997423,523.5762240000004,None,,,,,,,2,001,2022_May_11_1950,expDesign_,2021.2.3,59.876438981121865,
0,1,1,1,0,232,323,1122,5,0,5,0,0,1,1,1,,,,,,,,,,,,,567.4938972000018,568.4942284000026,568.4778310000002,573.2816243000016,573.2816243000016,None,569.4784485299999,572.2972780000018,"['num_2', 'num_3', 'num_2']","[0.9277588000004471, 1.463713799999823, 1.9917488999999478]",573.2816243000016,None,,,,,,,,,,,,,2,001,2022_May_11_1950,expDesign_,2021.2.3,59.876438981121865,
0,1,1,0,1,123,212,3113,5,0,5,0,0,2,2,2,,,,,,,,,,,,,582.2720588000011,583.2730501000005,583.2730501000005,588.0768607000027,588.0768607000027,None,584.2738458300003,None,"['num_1', 'num_2', 'num_3']","[0.4765166999968642, 1.3724068999981682, 2.1245581999974092]",588.0768607000027,None,,,,,,,,,,,,,2,001,2022_May_11_1950,expDesign_,2021.2.3,59.876438981121865,
0,0,0,0,1,312,231,2332,5,0,5,0,0,3,3,3,,,,,,,,,,,,,597.0839903000015,598.0851609000019,598.0851609000019,602.8887448000023,602.8887448000023,None,599.0858183299999,601.9045122000025,"['num_3', 'num_1', 'num_2']","[0.9286487999997917, 2.0488322000019252, 2.656619299999875]",602.8887448000023,None,,,,,,,,,,,,,2,001,2022_May_11_1950,expDesign_,2021.2.3,59.876438981121865,
1,1,1,1,1,321,213,3121,5,0,5,0,0,4,4,4,,,,,,,,,,,,,611.8792016000007,612.8800308999998,612.8800308999998,617.684112400002,617.684112400002,None,613.8806998300017,None,"['num_3', 'num_1', 'num_1']","[0.5892000999992888, 1.2693859999999404, 2.0527777999996033]",617.684112400002,None,,,,,,,,,,,,,2,001,2022_May_11_1950,expDesign_,2021.2.3,59.876438981121865,
1,1,1,0,1,131,313,1133,5,0,5,0,0,5,5,5,,,,,,,,,,,,,626.6579292000024,627.6586700000007,627.6586700000007,632.4626934000007,632.4626934000007,None,628.6593483300014,None,"['num_1', 'num_3', 'num_1']","[0.5306608999999298, 1.1866394999997283, 1.866683500000363]",632.4626934000007,None,,,,,,,,,,,,,2,001,2022_May_11_1950,expDesign_,2021.2.3,59.876438981121865,
0,0,1,0,1,323,131,3332,5,0,5,0,0,6,6,6,,,,,,,,,,,,,641.4691430000021,642.4698855999995,642.4698855999995,647.2743609000026,647.2743609000026,640.4864577000008,643.4713853300011,None,"['num_1', 'num_3', 'num_1']","[0.92695090000052, 1.590903000000253, 2.2389532000015606]",647.2743609000026,640.4864577000008,,,,,,,,,,,,,2,001,2022_May_11_1950,expDesign_,2021.2.3,59.876438981121865,
1,0,0,1,0,231,123,3311,5,0,5,0,0,7,7,7,,,,,,,,,,,,,656.2814577999998,657.2829394,657.2829394,662.0862909999996,662.0862909999996,None,658.2831464300027,None,"['num_1', 'num_2', 'num_3']","[0.7951556000007258, 1.322991799999727, 1.8593772000022]",662.0862909999996,None,,,,,,,,,,,,,2,001,2022_May_11_1950,expDesign_,2021.2.3,59.876438981121865,
1,0,1,1,1,131,212,2122,5,0,5,0,0,8,8,8,,,,,,,,,,,,,671.0771937000027,672.0782558000028,672.0782558000028,676.8814239000021,676.8814239000021,None,673.0785517300021,None,"['num_2', 'num_1', 'num_2']","[0.6799300999991829, 1.4078742999990936, 2.0718216999994183]",676.8814239000021,None,,,,,,,,,,,,,2,001,2022_May_11_1950,expDesign_,2021.2.3,59.876438981121865,
1,0,1,1,0,131,312,3311,5,0,5,0,0,9,9,9,,,,,,,,,,,,,685.8721019000004,686.873050000002,686.873050000002,691.6769047000016,691.6769047000016,None,687.8743628300028,690.6923547000006,"['num_3', 'num_1', 'num_2']","[1.0846701999980723, 1.7967133999991347, 2.4362216999979864]",691.6769047000016,None,,,,,,,,,,,,,2,001,2022_May_11_1950,expDesign_,2021.2.3,59.876438981121865,
1,1,0,1,1,321,212,1332,5,0,5,0,0,10,10,10,,,,,,,,,,,,,700.7011883000014,701.7012074000013,701.6846790000018,706.4887449000016,706.4887449000016,None,702.6854306300004,705.5053560000015,"['num_3', 'num_2', 'num_1']","[0.5765016999976069, 1.2887602999981027, 1.9124114000005648]",706.4887449000016,None,,,,,,,,,,,,,2,001,2022_May_11_1950,expDesign_,2021.2.3,59.876438981121865,
0,0,0,0,0,313,132,2132,5,0,5,0,0,11,11,11,,,,,,,,,,,,,715.4961737000012,716.4966506000019,716.4799439000017,721.2834839999996,721.2834839999996,None,717.4810400300005,None,"['num_1', 'num_2', 'num_3']","[0.4857207999993989, 1.5658422999986215, 2.2057717999996385]",721.2834839999996,None,,,,,,,,,,,,,2,001,2022_May_11_1950,expDesign_,2021.2.3,59.876438981121865,
0,0,1,1,1,232,313,3232,5,0,5,0,0,12,12,12,,,,,,,,,,,,,730.2741989999995,731.2751882000011,731.2751882000011,736.079292800001,736.079292800001,None,732.2756249299994,735.095235300003,"['num_2', 'num_3', 'num_2']","[0.5299043000013626, 1.1219603000026837, 1.6340863000004902]",736.079292800001,None,,,,,,,,,,,,,2,001,2022_May_11_1950,expDesign_,2021.2.3,59.876438981121865,
0,1,1,0,0,323,232,2312,5,0,5,0,0,13,13,13,,,,,,,,,,,,,745.1032062000013,746.1032875000019,746.0868846000012,750.8909386000014,750.8909386000014,None,747.0879475300019,None,"['num_3', 'num_2', 'num_3']","[0.7022459999971034, 1.3025570999998308, 1.878112799997325]",750.8909386000014,None,,,,,,,,,,,,,2,001,2022_May_11_1950,expDesign_,2021.2.3,59.876438981121865,
0,0,0,1,0,231,123,2121,5,0,5,0,0,14,14,14,,,,,,,,,,,,,759.8981927999994,760.8986973000028,760.8823598000017,765.6864298,765.6864298,None,761.8830934300015,764.7025150000009,"['num_2', 'num_3', 'num_1']","[2.314584300002025, 2.7390215000013995, 3.2027203000034206]",765.6864298,None,,,,,,,,,,,,,2,001,2022_May_11_1950,expDesign_,2021.2.3,59.876438981121865,
1,1,0,0,0,131,213,2321,5,0,5,0,0,15,15,15,,,,,,,,,,,,,774.6933975000029,775.6941798000007,775.6776150000005,780.4813103000015,780.4813103000015,None,776.6783057300011,None,"['num_1', 'num_3', 'num_1']","[0.5442855000001146, 1.0398514999978943, 1.511987300000328]",780.4813103000015,None,,,,,,,,,,,,,2,001,2022_May_11_1950,expDesign_,2021.2.3,59.876438981121865,
0,1,0,0,1,131,323,2212,5,0,5,0,0,16,16,16,,,,,,,,,,,,,789.4547947000028,790.4558364000004,790.4558364000004,795.2600581000006,795.2600581000006,None,791.4571288300024,None,"['num_1', 'num_3', 'num_1']","[0.5170972999985679, 1.0053412999986904, 1.4294836999979452]",795.2600581000006,None,,,,,,,,,,,,,2,001,2022_May_11_1950,expDesign_,2021.2.3,59.876438981121865,
1,0,0,0,1,313,122,1211,5,0,5,0,0,17,17,17,,,,,,,,,,,,,804.2841179999996,805.2843290000019,805.2679741000029,810.0714542000023,810.0551245000024,803.2841001000015,806.2688333300023,None,"['num_1', 'num_1', 'num_3']","[0.6420588000000862, 1.0338195000003907, 1.4499794999974256]",810.0551245000024,803.2841001000015,,,,,,,,,,,,,2,001,2022_May_11_1950,expDesign_,2021.2.3,59.876438981121865,
1,0,0,0,0,213,131,2323,5,0,5,0,0,18,18,18,,,,,,,,,,,,,819.0457146000008,820.0465249000008,820.0465249000008,824.8500602000022,824.8500602000022,818.0630746000024,821.0478633300002,None,"['num_2', 'num_1', 'num_3']","[0.8231135999994876, 1.4951414999995905, 2.2070528000003833]",824.8500602000022,818.0630746000024,,,,,,,,,,,,,2,001,2022_May_11_1950,expDesign_,2021.2.3,59.876438981121865,
1,1,0,0,1,123,212,2133,5,0,5,0,0,19,19,19,,,,,,,,,,,,,833.8741251000029,834.8752082000028,834.8582422,839.6621704000027,839.6621704000027,832.8742261000007,835.8589242299997,None,"['num_1', 'num_2', 'num_3']","[0.42698879999807104, 0.8989473000001453, 1.7788872999990417]",839.6621704000027,832.8742261000007,,,,,,,,,,,,,2,001,2022_May_11_1950,expDesign_,2021.2.3,59.876438981121865,
1,0,0,1,1,123,231,1113,5,0,5,0,0,20,20,20,,,,,,,,,,,,,848.6690973000004,849.6702603000012,849.6702603000012,854.4739509000028,854.4739509000028,847.6865653000023,850.6710786300021,853.490436600001,"['num_1', 'num_2', 'num_3']","[0.6071767000030377, 1.0553754000029585, 1.4630851000001712]",854.4739509000028,847.6865653000023,,,,,,,,,,,,,2,001,2022_May_11_1950,expDesign_,2021.2.3,59.876438981121865,
0,1,0,1,0,213,322,3211,5,0,5,0,0,21,21,21,,,,,,,,,,,,,863.497895200002,864.4987954999997,864.4819634000014,869.2860483000004,869.2860483000004,None,865.4828640299995,868.3017720000025,"['num_2', 'num_1', 'num_3']","[0.4352493999977014, 1.2273741999997583, 1.8588756999997713]",869.2860483000004,None,,,,,,,,,,,,,2,001,2022_May_11_1950,expDesign_,2021.2.3,59.876438981121865,
1,0,1,0,0,321,112,1331,5,0,5,0,0,22,22,22,,,,,,,,,,,,,878.259763500002,879.2605675000013,879.2605675000013,884.0642851000011,884.0642851000011,None,880.2608487300015,883.0803637000026,"['num_3', 'num_2', 'num_1']","[0.5368045000031998, 1.0328020000015385, 1.6568050000023504]",884.0642851000011,None,,,,,,,,,,,,,2,001,2022_May_11_1950,expDesign_,2021.2.3,59.876438981121865,
0,0,0,1,1,321,213,3221,5,0,5,0,0,23,23,23,,,,,,,,,,,,,893.0716705000013,894.0726630000026,894.0726630000026,898.8763838000013,898.8763838000013,None,895.0731478299997,897.8927856000009,"['num_3', 'num_2', 'num_1']","[0.7325944000003801, 1.3970641999985673, 1.948736700000154]",898.8763838000013,None,,,,,,,,,,,,,2,001,2022_May_11_1950,expDesign_,2021.2.3,59.876438981121865,
1,1,0,1,0,321,113,2311,5,0,5,0,0,24,24,24,,,,,,,,,,,,,907.8831344999999,908.8841721999997,908.8841721999997,913.6883105000015,913.6883105000015,None,909.8850493300008,None,"['num_3', 'num_2', 'num_1']","[0.44889060000059544, 0.9529426999979478, 1.592672599999787]",913.6883105000015,None,,,,,,,,,,,,,2,001,2022_May_11_1950,expDesign_,2021.2.3,59.876438981121865,
0,1,0,0,0,213,122,3231,5,0,5,0,0,25,25,25,,,,,,,,,,,,,922.6786291000026,923.679759300001,923.679759300001,928.4840053000007,928.4840053000007,None,924.6803110300018,927.4992912000016,"['num_2', 'num_1', 'num_3']","[0.8528162999973574, 1.3729463999989093, 1.988895999998931]",928.4840053000007,None,,,,,,,,,,,,,2,001,2022_May_11_1950,expDesign_,2021.2.3,59.876438981121865,
1,0,1,0,1,323,231,1311,5,0,5,0,0,26,26,26,,,,,,,,,,,,,937.4907531999997,938.4914013000016,938.4745628000019,943.2787898000024,943.2787898000024,None,939.4756178300006,None,"['num_3', 'num_2', 'num_3']","[0.6347234000022581, 1.5860646000000997, 2.3061520000010205]",943.2787898000024,None,,,,,,,,,,,,,2,001,2022_May_11_1950,expDesign_,2021.2.3,59.876438981121865,
1,1,1,1,0,132,211,2132,5,0,5,0,0,27,27,27,,,,,,,,,,,,,952.3031198999997,953.3031498000018,953.2868049000026,958.0904690999996,958.0904690999996,None,954.2876360300027,None,"['num_1', 'num_2', 'num_2']","[1.0465970000004745, 1.9827714999992168, 2.8065061999986938]",958.0904690999996,None,,,,,,,,,,,,,2,001,2022_May_11_1950,expDesign_,2021.2.3,59.876438981121865,
0,0,1,1,0,313,132,3122,5,0,5,0,0,28,28,28,,,,,,,,,,,,,967.0809765000013,968.0819981999994,968.0819981999994,972.8853013000007,972.8853013000007,None,969.0823825300024,971.9016021000025,"['num_3', 'num_1', 'num_3']","[0.6517889999995532, 1.5158401999979105, 2.2041147999989334]",972.8853013000007,None,,,,,,,,,,,,,2,001,2022_May_11_1950,expDesign_,2021.2.3,59.876438981121865,
0,1,0,1,1,323,231,2232,5,0,5,0,0,29,29,29,,,,,,,,,,,,,981.8930495000022,982.8943966000006,982.8770810000024,987.6809505000019,987.6809505000019,None,983.8779163300017,None,"['num_3', 'num_2', 'num_3']","[0.7521446000027936, 1.3439751000005344, 1.8719361000003119]",987.6809505000019,None,,,,,,,,,,,,,2,001,2022_May_11_1950,expDesign_,2021.2.3,59.876438981121865,
0,1,1,1,1,232,123,3313,5,0,5,0,0,30,30,30,,,,,,,,,,,,,996.6716563000009,997.6723026,997.6723026,1002.4762418999999,1002.4762418999999,None,998.67327563,None,"['num_2', 'num_1', 'num_2']","[1.4927591999985452, 2.564852300001803, 3.2128505000000587]",1002.4762418999999,None,,,,,,,,,,,,,2,001,2022_May_11_1950,expDesign_,2021.2.3,59.876438981121865,
1,1,1,0,0,133,312,2131,5,0,5,0,0,31,31,31,,,,,,,,,,,,,1011.4834929999997,1012.4839147000021,1012.4839147000021,1017.2880731000005,1017.2880731000005,None,1013.4849815299997,None,"['num_1', 'num_3', 'num_3']","[0.9452725000010105, 2.056906900001195, 2.9611653000029037]",1017.2880731000005,None,,,,,,,,,,,,,2,001,2022_May_11_1950,expDesign_,2021.2.3,59.876438981121865,
,,,,,,,,,,,,,,,,,,,,,,,,,,,,,,,,,,,,,,,,1025.2954787000017,None,space,13.13736229999995,1025.2954787000017,None,1038.4716270000026,None,space,1154.3759138999994,1038.4716270000026,None,2,001,2022_May_11_1950,expDesign_,2021.2.3,59.876438981121865,
